# Sensor type: Respeck
# Activity type: Normal walking
# Activity subtype: Normal
# Subject id: s1862623
# Notes: 
timestamp,accel_x,accel_y,accel_z,gyro_x,gyro_y,gyro_z
1695814265438,1.1281738,-0.32476807,0.03363037,-2.578125,-0.359375,-2.984375
1695814265474,1.3664551,-0.078430176,0.15545654,-6.5625,5.453125,3.8125
1695814265511,1.6748047,0.008972168,-0.020812988,-3.078125,-11.03125,-12.125
1695814265550,1.1748047,-0.0178833,-0.38555908,-23.328125,-14.28125,-7.0
1695814265587,0.560791,-0.1116333,-0.3423462,-18.375,-4.234375,10.078125
1695814265626,0.7536621,-0.121154785,-0.2197876,-10.375,10.03125,-0.984375
1695814265674,1.3374023,-0.23297119,-0.016906738,-18.140625,10.515625,-10.3125
1695814265714,1.0947266,0.0758667,-0.07940674,-17.0625,-2.125,0.328125
1695814265749,0.47387695,0.19036865,0.08001709,-18.40625,1.859375,5.4375
1695814265786,0.29101562,-0.17095947,0.014343262,-18.484375,9.109375,7.390625
1695814265824,0.5161133,-0.4085083,0.04486084,-9.890625,2.484375,2.125
1695814265862,0.7302246,-0.2041626,0.035583496,2.84375,-6.46875,-4.78125
1695814265912,1.0083008,0.15887451,0.081726074,21.4375,17.671875,-3.09375
1695814265950,1.3288574,-0.09967041,-0.085510254,35.421875,14.078125,8.546875
1695814265989,1.6757812,-0.6873169,0.09979248,24.03125,-10.0625,13.65625
1695814266025,1.579834,-0.6494751,0.062438965,34.3125,-38.734375,0.109375
1695814266062,1.0307617,-0.044006348,-0.38555908,3.671875,-68.078125,-5.75
1695814266099,0.72875977,0.17938232,-0.47955322,13.25,-44.1875,-18.265625
1695814266150,1.5810547,0.96795654,0.23284912,-36.09375,27.203125,-24.015625
1695814266186,1.4980469,-0.11871338,-0.11505127,-15.015625,7.6875,13.953125
1695814266225,0.8737793,-0.8069458,-0.08917236,-13.703125,-8.140625,-3.765625
1695814266264,0.28833008,-0.08746338,-0.018371582,-36.96875,-9.875,-20.09375
1695814266301,0.29223633,0.25531006,0.16595459,-2.359375,3.1875,-0.5625
1695814266338,0.52734375,0.061950684,-0.034729004,3.46875,-3.15625,-7.296875
1695814266426,0.6503906,-0.15484619,0.09515381,-11.84375,9.09375,-4.46875
1695814266428,0.6928711,-0.16583252,0.22113037,19.484375,13.671875,-1.90625
1695814266464,0.8779297,-0.24127197,0.21746826,15.125,21.25,-6.796875
1695814266500,1.4931641,-0.24908447,0.14007568,-5.484375,16.046875,8.78125
1695814266538,1.7089844,-0.12042236,0.3690796,8.109375,2.9375,2.40625
1695814266576,1.420166,-0.394104,-0.17926025,31.75,-12.703125,-8.65625
1695814266626,0.93115234,-0.12677002,-0.51690674,-7.4375,-23.8125,-6.984375
1695814266663,1.1115723,0.38739014,-0.3123169,-32.234375,14.640625,22.75
1695814266701,1.2900391,-0.24761963,-0.39068604,21.421875,0.484375,13.03125
1695814266737,1.121582,-0.30181885,0.11224365,3.578125,-7.421875,-15.921875
1695814266777,0.94628906,-0.011047363,0.010437012,-13.328125,-2.875,-0.75
1695814266817,0.39624023,0.13934326,0.0026245117,16.96875,-20.671875,15.875
1695814266863,0.0234375,-0.06768799,0.03289795,1.609375,-11.9375,7.15625
1695814266899,0.13574219,-0.25811768,-0.018127441,8.328125,10.453125,-5.296875
1695814266936,0.7141113,-0.14556885,0.1515503,31.828125,23.234375,-3.796875
1695814266976,1.7382812,-0.06549072,-0.06768799,26.703125,20.59375,-9.84375
1695814267013,1.5883789,-0.41656494,0.1437378,-7.3125,4.921875,23.171875
1695814267050,1.2526855,-0.84698486,0.10760498,-7.390625,-23.015625,-5.46875
1695814267100,1.192627,-0.34259033,-0.006652832,5.53125,-40.59375,-29.359375
1695814267137,1.0324707,0.105407715,-0.39874268,-1.859375,-35.09375,-8.984375
1695814267176,1.1628418,0.2892456,0.018493652,-4.421875,3.3125,-6.671875
1695814267214,1.2885742,0.543396,-0.022521973,-11.125,13.65625,-4.40625
1695814267250,1.1867676,-0.48321533,0.02142334,-9.5,10.3125,10.546875
1695814267287,0.7375488,-0.661438,-0.12994385,-15.828125,-8.265625,0.125
1695814267338,0.48486328,-0.015686035,-0.05303955,-25.6875,4.296875,-1.015625
1695814267376,0.42407227,0.21624756,0.2086792,-23.140625,-0.5,-8.859375
1695814267413,0.46362305,0.049743652,0.15887451,-6.265625,2.640625,-0.59375
1695814267451,0.6201172,-0.14215088,0.051208496,22.46875,3.546875,12.140625
1695814267496,0.9938965,-0.19317627,0.22918701,14.328125,3.875,-3.125
1695814267525,1.4165039,-0.23150635,0.19573975,-10.34375,6.421875,-3.296875
1695814267575,1.5136719,-0.21124268,0.38763428,3.09375,-4.625,1.75
1695814267614,1.0830078,-0.4590454,0.30389404,-1.40625,-7.90625,-11.1875
1695814267649,0.8713379,-0.395813,-0.32818604,-18.46875,2.421875,-10.75
1695814267688,0.611084,0.17401123,-0.5003052,-10.140625,-12.296875,7.0625
1695814267726,1.999939,0.21820068,-0.6604614,27.265625,23.3125,18.109375
1695814267764,1.8654785,-0.013000488,0.28729248,10.203125,4.578125,7.140625
1695814267814,0.6989746,-0.47540283,-0.16119385,-12.375,-13.28125,-13.4375
1695814267851,0.2890625,-0.48223877,0.05657959,-71.859375,30.703125,-2.34375
1695814267890,0.11816406,0.15447998,0.27166748,-0.734375,2.921875,14.578125
1695814267926,0.24560547,0.2230835,0.0680542,-14.53125,-3.25,32.015625
1695814267966,0.5554199,-0.113342285,0.046325684,33.28125,12.46875,-3.5
1695814268001,1.0649414,-0.38458252,0.05609131,51.65625,21.859375,-31.015625
1695814268051,1.5368652,-0.3867798,-0.01763916,52.578125,5.875,10.015625
1695814268089,1.8461914,-0.5462036,0.1749878,13.71875,-17.78125,30.515625
1695814268126,1.3066406,-0.5371704,0.11907959,1.828125,-29.296875,-8.5
1695814268166,0.8881836,-0.23858643,-0.40338135,13.984375,-21.875,-21.03125
1695814268201,0.7902832,0.19915771,-0.190979,20.0625,-16.953125,-29.5
1695814268238,1.7253418,0.82318115,0.0072631836,-23.375,-3.703125,-13.078125
1695814268288,1.5144043,-0.1843872,-0.077697754,-8.578125,22.703125,17.609375
1695814268325,0.91748047,-0.67681885,0.035827637,-22.78125,-14.609375,9.046875
1695814268363,0.30688477,-0.22125244,-0.13238525,-18.703125,-17.328125,0.0625
1695814268400,0.080322266,0.18621826,0.010681152,-11.65625,-9.421875,-9.75
1695814268438,0.37646484,0.09295654,0.124938965,-6.09375,18.84375,-9.578125
1695814268476,0.6945801,-0.08087158,0.22406006,-14.359375,19.515625,1.09375
1695814268526,0.9934082,-0.18560791,0.21258545,14.859375,21.4375,5.71875
1695814268567,1.4731445,-0.27838135,0.17572021,15.21875,23.5625,0.5625
1695814268600,1.6330566,-0.043518066,0.27947998,-6.15625,9.25,1.625
1695814268638,1.4899902,-0.21783447,0.23382568,-6.84375,0.390625,2.375
1695814268675,0.92529297,-0.58551025,-0.51690674,14.703125,-17.765625,-12.5
1695814268714,0.69384766,0.08807373,-0.583313,-7.640625,-1.53125,5.15625
1695814268765,1.5661621,0.4459839,-0.36065674,-12.03125,20.625,37.890625
1695814268801,1.3566895,-0.35284424,-0.20904541,17.890625,-2.140625,-5.109375
1695814268837,0.8378906,-0.37213135,-0.014465332,2.765625,-7.890625,-26.484375
1695814268875,0.7233887,0.13201904,0.1437378,-18.328125,-0.515625,10.671875
1695814268912,0.36572266,0.3324585,0.10638428,8.859375,-24.828125,24.5625
1695814268965,0.11254883,-0.1963501,-0.07183838,7.921875,-7.546875,8.59375
1695814268999,0.37060547,-0.5654907,-0.012756348,19.1875,18.140625,-18.28125
1695814269036,0.8847656,-0.23638916,0.09100342,25.625,7.390625,-8.1875
1695814269075,1.6896973,-0.07598877,-0.045959473,20.09375,8.4375,6.8125
1695814269113,1.6442871,-0.41363525,0.061462402,3.875,-12.546875,16.140625
1695814269150,1.4006348,-0.5593872,0.043884277,-11.96875,-8.625,-2.03125
1695814269200,1.1147461,-0.22149658,-0.22369385,-6.15625,-21.59375,1.703125
1695814269237,0.94311523,0.07342529,-0.44195557,10.21875,-30.34375,-15.9375
1695814269275,1.157959,0.47406006,0.17034912,-19.140625,5.671875,-22.140625
1695814269313,1.2436523,0.2921753,-0.097473145,19.6875,7.40625,0.875
1695814269350,1.222168,-0.333313,-0.020324707,-8.765625,-0.625,20.453125
1695814269388,0.7128906,-0.63604736,-0.14508057,-9.03125,-1.5625,-2.875
1695814269440,0.32177734,-0.038879395,-0.013977051,-25.390625,10.859375,-8.265625
1695814269477,0.2788086,0.22332764,0.0692749,-18.109375,8.171875,-8.5625
1695814269514,0.5151367,0.13641357,0.18084717,2.0,7.125,16.171875
1695814269551,0.73217773,-0.09234619,0.16033936,15.015625,0.90625,16.734375
1695814269589,1.0334473,-0.46905518,0.013366699,11.75,10.84375,-15.265625
1695814269626,1.5297852,-0.18414307,0.21453857,-18.21875,4.546875,-3.59375
1695814269676,1.7324219,-0.030578613,0.38397217,-7.96875,-3.015625,-3.625
1695814269716,1.2036133,-0.4282837,-0.006164551,-6.6875,-8.234375,-18.28125
1695814269751,0.8588867,-0.4060669,-0.3123169,-4.578125,3.46875,-5.90625
1695814269787,0.8376465,0.26654053,-0.34283447,-21.078125,-3.484375,18.109375
1695814269825,1.3544922,0.08294678,-0.52545166,0.234375,11.984375,11.484375
1695814269915,1.3127441,-0.22149658,-0.19317627,0.0625,16.390625,-13.3125
1695814269919,1.1369629,-0.237854,0.0033569336,-11.953125,1.578125,-7.0
1695814269952,0.6459961,0.07366943,0.094177246,-21.0625,-5.03125,10.140625
1695814269989,0.20776367,0.20526123,0.13250732,5.046875,-14.484375,20.546875
1695814270026,0.13427734,-0.284729,-0.12237549,14.28125,-5.984375,13.21875
1695814270064,0.4736328,-0.3657837,-0.014465332,-2.0,13.15625,-7.578125
1695814270100,1.0871582,-0.09454346,0.06976318,6.390625,12.71875,-8.65625
1695814270151,1.7043457,0.04119873,0.07318115,33.375,8.0625,7.609375
1695814270187,1.6569824,-0.51153564,0.047058105,20.5625,17.109375,27.296875
1695814270226,1.5849609,-0.83135986,-0.050354004,-5.5625,-2.828125,8.5
1695814270265,1.140625,-0.12774658,-0.567688,45.65625,-44.640625,-29.84375
1695814270300,1.1777344,0.27313232,-0.3352661,11.0,-29.25,-27.265625
1695814270338,0.97216797,0.8788452,0.093444824,-32.734375,23.671875,17.015625
1695814270387,0.9580078,0.09490967,-0.19195557,-11.140625,11.4375,8.546875
1695814270427,1.1704102,-0.9199829,-0.093811035,12.25,-14.859375,-15.109375
1695814270463,0.78149414,-0.26275635,-0.1987915,-51.234375,10.296875,-6.15625
1695814270501,0.5046387,0.2489624,-0.038879395,-37.125,-3.609375,-14.953125
1695814270539,0.2006836,0.19158936,0.047302246,-16.5,0.265625,-11.84375
1695814270577,0.42578125,0.046813965,0.1930542,18.5,0.59375,15.875
1695814270625,0.8154297,-0.19732666,0.09686279,16.375,4.4375,9.796875
1695814270665,0.8996582,-0.38531494,0.078063965,2.953125,14.203125,-10.484375
1695814270701,0.96240234,-0.13409424,0.15570068,-6.390625,3.8125,4.234375
1695814270746,1.7072754,0.09588623,0.230896,20.78125,2.234375,5.71875
1695814270779,1.7824707,-0.40777588,-0.16802979,21.3125,-1.578125,-15.71875
1695814270813,1.2487793,-0.33673096,-0.6045532,-7.203125,-10.515625,1.046875
1695814270865,0.95825195,0.20477295,-0.3670044,-31.9375,-5.96875,18.984375
1695814270901,0.8144531,-0.1416626,-0.36480713,13.484375,7.25,15.1875
1695814270937,0.91503906,-0.3904419,-0.09503174,-17.796875,12.3125,-19.59375
1695814270977,1.2866211,0.11395264,-0.035461426,-25.125,8.28125,-3.265625
1695814271015,0.6347656,0.45355225,0.15618896,-10.1875,-11.328125,9.640625
1695814271049,0.04272461,0.11053467,0.028747559,7.203125,-9.5625,18.5625
1695814271100,0.18579102,-0.5869751,-0.1404419,-4.859375,11.734375,5.875
1695814271137,0.8796387,-0.55670166,0.094177246,-0.0625,13.984375,-18.859375
1695814271176,1.3642578,-0.16143799,0.012145996,16.921875,-13.0,-6.015625
1695814271217,1.5380859,-0.13067627,0.020202637,51.734375,5.71875,4.28125
1695814271250,1.7412109,-0.4981079,0.003112793,2.984375,-18.875,-7.8125
1695814271287,1.2436523,-0.49249268,-0.03253174,18.859375,-33.515625,5.765625
1695814271337,0.64404297,-0.11602783,-0.46417236,9.265625,-21.28125,-19.65625
1695814271377,0.7182617,0.1408081,-0.23809814,6.03125,-25.609375,-38.5
1695814271412,1.999939,1.1288452,0.12371826,-45.640625,15.875,19.109375
1695814271450,1.097168,-0.2263794,-0.06109619,14.90625,4.8125,25.28125
1695814271489,0.6135254,-0.6878052,-0.09210205,-16.296875,-7.125,-4.03125
1695814271526,0.17480469,-0.15533447,-0.062561035,-20.9375,2.953125,2.765625
1695814271576,0.390625,0.1461792,0.07757568,-4.984375,-5.34375,-5.484375
1695814271613,0.65185547,0.0289917,0.094177246,-9.09375,8.765625,-8.078125
1695814271650,0.7463379,-0.12677002,0.276062,-11.984375,11.75,9.53125
1695814271689,1.1564941,-0.39630127,0.20819092,11.96875,31.75,-0.890625
1695814271727,1.5283203,-0.3867798,0.1930542,3.640625,18.203125,-13.21875
1695814271765,1.5102539,-0.3430786,0.3793335,-33.4375,5.15625,-17.921875
1695814271813,1.0007324,-0.28009033,-0.027893066,-20.046875,-19.921875,-11.453125
1695814271851,0.56933594,0.07366943,-0.58306885,-22.375,-30.953125,0.125
1695814271888,1.015625,0.49749756,-0.75909424,33.125,27.171875,37.015625
1695814271924,1.8339844,0.007507324,-0.21002197,-33.15625,31.53125,12.671875
1695814271963,1.114502,-0.95025635,-0.020568848,19.59375,-3.46875,-22.109375
1695814272000,0.60009766,0.0138549805,-0.070617676,-21.0625,-8.9375,-2.703125
1695814272053,0.46801758,0.33709717,0.22235107,-4.0,-13.234375,24.75
1695814272088,0.5473633,-0.14239502,-0.19293213,22.546875,0.34375,19.390625
1695814272125,0.5119629,-0.2185669,0.03363037,3.0625,6.1875,-1.53125
1695814272163,0.5864258,-0.2053833,0.12664795,40.75,5.296875,-19.03125
1695814272203,0.9897461,-0.12261963,0.13128662,56.4375,-3.359375,-0.578125
1695814272250,1.8325195,-0.25665283,-0.066711426,39.984375,-15.859375,21.15625
1695814272287,1.5771484,-0.72442627,0.31756592,11.640625,-12.203125,12.984375
1695814272324,1.0080566,-0.39849854,-0.25079346,-2.859375,-48.046875,-2.921875
1695814272362,0.5751953,0.13861084,-0.40899658,31.078125,-23.953125,-19.71875
1695814272402,1.3022461,0.56243896,0.012145996,24.6875,-7.28125,-29.875
1695814272439,1.557373,0.23919678,-0.20391846,-1.71875,22.359375,15.234375
1695814272488,1.2397461,-0.7124634,0.021911621,-27.8125,5.578125,0.5
1695814272526,0.4650879,-0.24639893,-0.19195557,-14.703125,2.09375,-8.921875
1695814272564,0.24487305,0.3456421,0.19232178,-17.5625,2.140625,8.9375
1695814272601,0.4736328,0.049743652,0.06732178,-2.4375,11.921875,11.0625
1695814272637,0.79003906,-0.4529419,-0.02911377,-20.375,13.9375,-12.671875
1695814272675,0.72387695,-0.26983643,0.30682373,-29.828125,9.21875,3.90625
1695814272725,0.9250488,0.023132324,0.17791748,-34.65625,26.625,7.34375
1695814272762,1.5734863,-0.30108643,0.058044434,-25.625,-3.40625,-0.296875
1695814272801,1.7856445,-0.30426025,0.5023804,-7.421875,-8.609375,-27.296875
1695814272852,1.029541,-0.38702393,-0.20147705,-17.75,-9.46875,-22.734375
1695814272876,0.66259766,-0.010559082,-0.7144165,1.046875,-44.390625,2.609375
1695814272926,1.057373,0.78948975,-0.45684814,10.65625,38.234375,23.703125
1695814272965,1.8154297,0.020690918,-0.08526611,-24.4375,19.78125,38.15625
1695814272999,0.99438477,-0.76226807,-0.04522705,16.640625,-2.96875,-31.15625
1695814273050,0.54345703,-0.17803955,0.05609131,-36.703125,-0.28125,-6.953125
1695814273075,0.51000977,0.24481201,0.29925537,-6.46875,-11.90625,40.890625
1695814273114,0.27075195,0.018737793,-0.31451416,47.3125,-20.1875,17.0625
1695814273151,0.52001953,-0.06964111,-0.094055176,11.953125,33.71875,-13.890625
1695814273239,1.0229492,-0.41412354,0.18914795,11.625,10.25,-12.890625
1695814273241,1.3994141,-0.5911255,0.094177246,35.21875,11.8125,15.015625
1695814273275,1.4526367,-0.3237915,-0.050109863,30.4375,-6.640625,-1.796875
1695814273313,1.2526855,-0.19073486,0.1942749,0.046875,-24.40625,-6.53125
1695814273351,1.0849609,-0.10430908,0.024353027,6.8125,-31.40625,10.1875
1695814273392,0.81884766,-0.14385986,-0.6548462,24.03125,-19.234375,-10.46875
1695814273437,1.2578125,0.40301514,0.027038574,-0.84375,5.65625,-26.296875
1695814273477,1.4360352,0.4237671,-0.105285645,-14.265625,23.515625,2.71875
1695814273513,1.1940918,-0.7192993,-0.040100098,-13.984375,-1.484375,11.5625
1695814273549,0.48291016,-0.2859497,-0.14849854,-19.84375,-19.765625,-9.0
1695814273589,0.35473633,0.11077881,0.12884521,-22.90625,4.15625,-8.09375
1695814273626,0.57666016,0.0028686523,0.10443115,-0.46875,-4.3125,-9.1875
1695814273677,0.56591797,-0.2649536,0.10491943,-17.109375,3.796875,-4.40625
1695814273716,0.6516113,-0.15264893,0.18157959,7.75,22.53125,4.609375
1695814273750,1.0195312,-0.028625488,0.22088623,0.75,1.21875,2.390625
1695814273787,1.7714844,-0.22418213,0.15325928,-13.9375,13.921875,0.109375
1695814273825,1.2412109,-0.35699463,0.27850342,-18.4375,-13.6875,-13.734375
1695814273865,0.85498047,-0.2468872,-0.49517822,4.265625,-4.15625,4.96875
1695814273914,0.9160156,0.24066162,-0.5918579,15.9375,6.578125,31.984375
1695814273950,1.999939,0.12957764,-0.28814697,-19.71875,15.3125,19.734375
1695814273989,1.3918457,-0.40582275,-0.10308838,-0.40625,-1.875,-4.234375
1695814274026,0.8076172,-0.14385986,-0.04864502,-21.9375,-2.8125,-24.40625
1695814274064,0.6394043,0.19036865,0.17010498,-13.171875,4.265625,12.0625
1695814274101,0.41455078,0.2098999,0.16790771,13.9375,-21.3125,30.4375
1695814274151,0.17871094,-0.26837158,-0.23175049,18.9375,-18.3125,-0.65625
1695814274188,0.31420898,-0.47174072,-0.0068969727,-5.875,10.40625,-25.078125
1695814274228,0.9296875,-0.06060791,0.27581787,23.96875,14.0625,-1.1875
1695814274267,1.999939,-0.22442627,-0.06329346,38.640625,8.53125,-0.375
1695814274300,1.4348145,-0.52130127,0.13885498,15.265625,-22.78125,5.46875
1695814274337,1.1135254,-0.456604,-6.1035156E-5,-9.640625,-27.5625,-1.953125
1695814274390,1.0634766,-0.08453369,-0.24615479,21.53125,-37.890625,1.640625
1695814274426,1.3583984,0.14276123,-0.25860596,20.046875,-15.703125,-28.46875
1695814274464,1.2050781,0.5661011,0.19866943,-59.109375,19.015625,12.1875
1695814274500,0.92407227,-0.19171143,-0.08502197,-5.984375,10.328125,3.765625
1695814274537,0.7192383,-0.60894775,-0.08526611,-9.46875,8.109375,-9.703125
1695814274588,0.6308594,-0.08526611,0.14056396,-28.296875,10.6875,3.796875
1695814274625,0.49731445,-0.07281494,-0.010559082,-3.171875,7.265625,-15.40625
1695814274666,0.3479004,0.07147217,0.024597168,-31.640625,11.921875,-4.828125
1695814274701,0.49389648,0.08074951,0.25775146,-11.640625,12.78125,13.03125
1695814274738,1.1337891,-0.19122314,0.14202881,16.09375,9.828125,5.328125
1695814274777,1.7209473,-0.08673096,0.18548584,-2.0,15.625,-13.453125
1695814274813,1.3115234,-0.13604736,0.3685913,-0.75,10.609375,-5.90625
1695814274868,1.5080566,-0.32110596,-0.35723877,61.53125,-4.15625,-8.734375
1695814274900,1.2260742,0.043640137,-0.51690674,-10.265625,24.640625,4.5625
1695814274938,1.0837402,0.14447021,-0.23223877,-34.734375,2.203125,35.21875
1695814274977,0.91186523,-0.46929932,-0.5515747,4.28125,2.140625,10.40625
1695814275013,0.9265137,-0.16778564,-0.14678955,-1.65625,9.046875,-27.8125
1695814275050,1.1921387,0.2177124,0.0119018555,-29.1875,-1.421875,9.109375
1695814275102,0.5539551,0.25506592,0.14007568,-25.703125,-9.640625,24.71875
1695814275139,0.056152344,-0.14971924,-0.017150879,4.90625,-7.140625,16.796875
1695814275176,0.2668457,-0.6409302,-0.17681885,17.609375,8.21875,-3.09375
1695814275213,0.80566406,-0.13726807,0.11468506,16.84375,10.875,-5.421875
1695814275250,1.2822266,0.022644043,0.08416748,27.234375,-9.171875,-2.21875
1695814275288,1.4716797,-0.32965088,-0.05987549,11.46875,-1.6875,4.65625
1695814275337,1.3781738,-0.5161743,0.061950684,16.734375,-20.765625,-0.546875
1695814275375,1.2790527,-0.31402588,-0.13531494,-0.015625,-26.515625,-5.515625
1695814275412,1.1345215,-0.10040283,-0.5864868,11.0,1.140625,-24.953125
1695814275450,0.9645996,0.37176514,-0.08892822,-11.046875,-14.34375,-17.953125
1695814275488,1.3537598,0.6898804,0.26312256,-16.8125,24.296875,6.3125
1695814275525,1.3662109,-0.5005493,-0.3743286,20.765625,9.875,1.296875
1695814275576,0.46899414,-0.49493408,-0.13043213,-42.359375,-11.015625,-3.546875
1695814275614,0.3166504,0.012878418,0.016052246,-36.515625,2.109375,-9.484375
1695814275651,0.37646484,0.04534912,0.09881592,-6.671875,5.078125,-14.265625
1695814275688,0.57836914,0.16741943,0.16473389,21.1875,-0.53125,5.640625
1695814275727,0.7775879,0.0026245117,0.19134521,1.984375,-16.71875,14.640625
1695814275776,1.4460449,-0.47052002,0.10394287,13.921875,19.03125,5.6875
1695814275812,1.59375,-0.17633057,0.30413818,-10.1875,-0.78125,-8.484375
1695814275850,1.314209,-0.33355713,0.1161499,-5.890625,-10.984375,-18.421875
1695814275889,0.98706055,-0.3513794,-0.50860596,8.53125,4.5,-5.390625
1695814275930,0.6748047,0.12908936,-0.49786377,-25.65625,-0.59375,8.390625
1695814275963,1.3901367,0.49969482,-0.25323486,-9.3125,39.09375,28.6875
1695814276013,1.5632324,-0.48321533,-0.348938,21.75,8.21875,23.609375
1695814276051,0.91259766,-0.18780518,-0.1729126,0.0625,-11.546875,-26.34375
1695814276087,0.6179199,0.20404053,-0.046691895,-10.078125,0.421875,1.390625
1695814276125,0.5769043,0.19256592,0.11663818,18.515625,0.796875,35.28125
1695814276163,0.40283203,-0.14630127,-0.07720947,11.234375,-5.46875,7.34375
1695814276201,0.42504883,-0.5137329,-0.08892822,28.515625,13.671875,-15.78125
1695814276250,0.7097168,-0.2053833,0.034362793,32.9375,-0.953125,-7.015625
1695814276288,1.1335449,0.06463623,-7.9345703E-4,45.875,-1.546875,1.25
1695814276326,1.935791,-0.37994385,-0.06109619,25.125,-12.140625,3.5625
1695814276363,1.5361328,-0.56329346,-0.15338135,4.71875,-21.375,0.171875
1695814276402,1.0441895,-0.19464111,-0.411438,-3.046875,-37.234375,-15.171875
1695814276437,0.7492676,0.1149292,-0.31280518,11.78125,-16.640625,-23.890625
1695814276488,1.3662109,0.791687,0.020446777,-8.390625,-7.546875,-18.328125
1695814276526,1.3344727,-0.05303955,-0.07281494,-9.875,26.875,18.484375
1695814276563,0.99121094,-0.7180786,-0.05328369,-9.40625,-5.546875,10.15625
1695814276601,0.4128418,-0.35406494,-0.13677979,-24.34375,-7.109375,-8.296875
1695814276652,0.35913086,0.0289917,0.11029053,-40.765625,-6.734375,-2.65625
1695814276727,0.57055664,-0.039611816,0.06390381,-15.40625,-3.390625,-9.21875
1695814276740,0.6948242,0.022888184,0.07269287,-12.828125,0.359375,-2.5625
1695814276764,0.8227539,-0.058410645,0.21038818,-15.96875,10.6875,10.71875
1695814276800,1.2783203,-0.23199463,0.08074951,-5.25,25.078125,2.34375
1695814276846,1.5,-0.19732666,0.2579956,-15.453125,-1.828125,-7.15625
1695814276874,1.3518066,-0.3892212,0.15301514,-5.34375,-9.390625,-21.171875
1695814276913,1.1022949,-0.28399658,-0.63238525,23.65625,-13.265625,-21.625
1695814276962,0.8288574,0.5258179,-0.27471924,-24.4375,-2.046875,21.921875
1695814277000,1.2861328,0.4069214,-0.1987915,-6.421875,36.09375,56.921875
1695814277037,1.2600098,-0.52301025,-0.3255005,16.640625,-9.59375,-10.484375
1695814277077,0.9638672,-0.5210571,0.14959717,-24.0625,-6.71875,-31.75
1695814277113,0.78515625,0.29412842,0.19915771,-23.78125,1.234375,23.5625
1695814277150,0.1340332,0.44256592,-0.085754395,50.296875,-12.609375,27.671875
1695814277201,0.13256836,-0.19903564,-0.077941895,25.234375,6.828125,1.671875
1695814277237,0.7438965,-0.79815674,-0.093811035,28.078125,36.546875,-25.296875
1695814277274,1.3095703,-0.30426025,-0.015197754,12.578125,15.28125,-4.359375
1695814277312,1.4230957,-0.041809082,0.08123779,9.421875,-1.9375,5.28125
1695814277350,1.4814453,-0.28131104,-0.030822754,23.578125,-5.96875,-10.375
1695814277388,1.4682617,-0.2937622,0.010192871,29.84375,-23.265625,8.5625
1695814277440,0.9055176,-0.15997314,-0.33233643,8.328125,-26.46875,5.5
1695814277476,0.5175781,-0.053771973,-0.42999268,1.1875,-14.40625,-23.609375
1695814277515,1.3886719,0.63031006,0.23162842,12.53125,1.765625,-38.859375
1695814277550,1.6474609,-0.12335205,-0.25299072,4.65625,9.84375,19.8125
1695814277587,1.0283203,-0.70880127,-0.082092285,-43.890625,-6.25,21.234375
1695814277626,0.18164062,-0.14337158,-0.12237549,-24.390625,-9.3125,-15.453125
1695814277675,0.12036133,0.15252686,0.101745605,-19.21875,9.390625,-11.609375
1695814277713,0.56762695,0.0602417,0.06317139,-6.015625,12.515625,9.890625
1695814277751,0.9770508,-0.09307861,0.15423584,-1.59375,8.796875,15.484375
1695814277789,1.0227051,-0.18756104,0.09832764,3.28125,-4.8125,6.328125
1695814277825,1.482666,-0.15264893,0.15692139,-13.609375,2.078125,-7.234375
1695814277865,1.5288086,-0.2942505,0.32733154,-26.46875,-0.625,-16.484375
1695814277912,1.0532227,-0.32086182,-0.032287598,-7.296875,-20.953125,-23.46875
1695814277950,0.91748047,0.06414795,-0.6148071,8.6875,-16.4375,-1.46875
1695814277988,1.1088867,0.4459839,-0.52471924,-0.59375,16.96875,36.875
1695814278025,1.6791992,-0.05645752,-0.159729,-17.421875,19.078125,31.5
1695814278062,1.057373,-0.7036743,-0.03253174,17.46875,-23.375,-40.59375
1695814278102,0.62939453,-0.14776611,0.086364746,-28.9375,-17.625,-20.875
1695814278151,0.43481445,0.38446045,0.22454834,4.84375,-13.15625,26.140625
1695814278189,0.36157227,0.0848999,-0.13555908,63.53125,4.890625,25.765625
1695814278225,0.5876465,-0.41583252,-0.08087158,-1.203125,15.90625,-4.125
1695814278266,0.66967773,-0.40460205,0.15423584,27.125,13.453125,-15.15625
1695814278301,1.0334473,-0.16607666,0.05609131,34.171875,10.984375,-0.203125
1695814278339,1.8505859,-0.112854004,-0.07891846,23.8125,13.09375,9.3125
1695814278390,1.6064453,-0.5064087,0.23529053,6.21875,-17.9375,19.84375
1695814278426,0.9711914,-0.53448486,-0.18634033,-0.1875,-34.234375,4.4375
1695814278463,0.54833984,-0.3892212,-0.60650635,1.0625,-12.4375,-19.09375
1695814278501,1.1757812,0.6691284,0.09490967,13.46875,-7.0625,-28.359375
1695814278538,1.7817383,0.9484253,-0.097717285,-8.3125,21.09375,2.140625
1695814278576,1.2575684,-0.7210083,0.11419678,-34.859375,-7.5,16.859375
1695814278625,0.47460938,-0.6782837,-0.31451416,0.171875,-24.421875,-8.09375
1695814278662,0.053466797,0.18695068,0.109313965,-26.375,2.21875,-4.640625
1695814278701,0.35888672,0.20501709,0.16351318,-9.21875,11.953125,4.515625
1695814278737,0.78027344,-0.13433838,0.089538574,-5.828125,12.078125,-0.453125
1695814278776,0.90722656,-0.058166504,0.29974365,-1.171875,17.109375,9.828125
1695814278814,1.0837402,-0.14898682,0.18890381,-0.578125,-5.109375,22.421875
1695814278863,1.574707,-0.30767822,0.18109131,-17.765625,5.640625,0.796875
1695814278902,1.7209473,-0.40704346,0.35565186,-10.640625,-13.5625,-33.796875
1695814278940,1.3552246,0.021911621,-0.26837158,-14.328125,-18.375,-11.8125
1695814278976,0.6809082,0.35076904,-0.50445557,-23.671875,-3.28125,23.734375
1695814279015,0.859375,0.14324951,-0.28448486,-8.578125,35.9375,41.59375
1695814279052,1.4111328,-0.57110596,-0.26861572,12.015625,3.1875,-15.5625
1695814279102,1.1835938,-0.348938,0.002380371,-1.953125,-26.03125,-45.046875
1695814279139,0.9104004,0.37420654,0.11077881,-25.234375,-1.0,7.90625
1695814279176,0.29345703,0.2753296,0.16619873,1.375,1.921875,31.328125
1695814279215,0.039794922,-0.18267822,0.007019043,-3.359375,12.234375,18.859375
1695814279251,0.41259766,-0.47955322,-0.041809082,5.640625,10.96875,-7.0
1695814279300,1.0500488,-0.28619385,0.11834717,20.578125,8.203125,-13.921875
1695814279350,1.8483887,-0.12359619,0.015075684,34.0625,19.34375,12.15625
1695814279375,1.392334,-0.45440674,0.04095459,8.03125,-11.9375,13.296875
1695814279413,1.1704102,-0.567688,0.11077881,-9.96875,-15.8125,1.734375
1695814279450,0.9511719,-0.070373535,-0.4776001,19.984375,-25.890625,-14.0
1695814279488,1.1140137,0.32000732,-0.44659424,51.28125,-3.546875,-28.4375
1695814279537,1.5808105,1.1073608,0.1317749,-58.125,10.453125,3.8125
1695814279575,1.1767578,-0.30255127,-0.093322754,4.6875,23.59375,23.5
1695814279613,0.8354492,-0.95196533,-0.22076416,4.78125,0.578125,-0.359375
1695814279650,0.32299805,0.0038452148,-0.09918213,-27.75,5.171875,-5.859375
1695814279688,0.4519043,0.34295654,0.121520996,-5.046875,4.171875,-4.546875
1695814279726,0.57714844,0.011657715,0.02947998,-4.96875,-3.65625,-10.4375
1695814279776,0.53759766,-0.03253174,0.27679443,-0.421875,6.15625,12.171875
1695814279812,0.8977051,-0.23834229,0.0836792,20.453125,5.546875,8.203125
1695814279851,1.5144043,-0.20513916,0.042663574,-9.734375,12.90625,-9.96875
1695814279888,1.7363281,-0.021057129,0.39178467,-19.78125,3.640625,-16.4375
1695814279925,1.3762207,-0.3303833,0.074645996,9.25,-30.65625,-21.375
1695814279963,1.019043,-0.010559082,-0.66656494,23.15625,-6.953125,4.015625
1695814280053,0.9470215,0.3637085,-0.3508911,-14.859375,8.0,30.65625
1695814280056,1.1174316,-0.08648682,-0.3945923,10.296875,8.75,17.640625
1695814280088,1.0544434,-0.3616333,-0.1428833,-2.484375,8.34375,-14.9375
1695814280125,1.2629395,0.13153076,-0.034973145,3.296875,-0.6875,-8.1875
1695814280163,0.795166,0.34783936,0.13568115,-2.328125,-12.875,10.96875
1695814280200,0.23364258,-0.012023926,-0.032043457,9.0,-14.765625,16.375
1695814280253,0.17456055,-0.5054321,-0.061340332,0.234375,10.5625,8.8125
1695814280287,0.53149414,-0.43096924,0.066101074,14.328125,8.484375,-13.828125
1695814280325,0.7944336,-0.028137207,0.016296387,10.6875,0.90625,-13.515625
1695814280363,1.4020996,0.039001465,0.06561279,36.53125,4.921875,-2.703125
1695814280400,1.9560547,-0.36114502,0.16229248,21.46875,-23.96875,7.640625
1695814280437,1.4641113,-0.58184814,0.10809326,-9.984375,-11.828125,12.046875
1695814280489,0.8120117,-0.34527588,-0.5227661,2.46875,-21.234375,-13.0
1695814280526,0.7229004,0.17108154,-0.39361572,23.046875,-0.15625,-38.25
1695814280563,1.999939,1.7994995,-0.0791626,-59.28125,2.609375,-37.390625
1695814280601,1.0305176,-0.24371338,0.14276123,-40.09375,15.84375,38.328125
1695814280639,0.8522949,-1.175354,-0.15655518,22.46875,-18.625,1.96875
1695814280675,0.32714844,-0.3255005,-0.15411377,-27.28125,1.78125,-23.8125
1695814280726,0.2849121,0.14129639,0.0927124,-25.015625,-17.21875,-2.296875
1695814280763,0.59350586,0.14984131,0.2074585,-21.09375,0.96875,-7.203125
1695814280801,0.670166,-0.030090332,0.15814209,-24.671875,2.953125,11.109375
1695814280875,0.68774414,-0.22003174,0.23944092,0.296875,24.25,5.921875
1695814280877,1.2768555,-0.24542236,0.046325684,-14.59375,24.984375,-16.15625
1695814280914,1.7304688,0.04510498,0.21063232,3.46875,1.3125,-0.171875
1695814280963,1.4855957,-0.4241333,0.30511475,-18.109375,-12.109375,-7.8125
1695814281014,0.84765625,-0.3303833,-0.54693604,-3.890625,-12.078125,4.859375
1695814281038,1.0036621,0.19232178,-0.49591064,-12.546875,-3.046875,15.75
1695814281076,1.6965332,-0.12774658,-0.29815674,-16.65625,19.234375,11.59375
1695814281114,1.0725098,-0.35528564,-0.04473877,-4.953125,-12.5,-8.953125
1695814281151,0.61083984,0.031677246,0.026062012,-2.484375,7.859375,-19.9375
1695814281200,0.44458008,0.1281128,0.21331787,-9.921875,-6.859375,16.1875
1695814281238,0.3527832,-0.049865723,-0.042541504,13.765625,-6.34375,31.046875
1695814281277,0.4230957,-0.24224854,-0.033996582,7.140625,14.546875,1.53125
1695814281312,0.6623535,-0.2156372,0.15057373,35.765625,6.71875,-15.21875
1695814281350,1.2404785,-0.2600708,0.012145996,58.0625,-5.1875,-6.265625
1695814281388,1.8764648,-0.45367432,0.034606934,17.640625,-11.515625,13.734375
1695814281440,1.5280762,-0.6526489,0.15692139,15.640625,-18.921875,9.09375
1695814281475,0.970459,-0.19683838,-0.40167236,2.359375,-20.625,-13.734375
1695814281514,0.8955078,0.1864624,-0.32843018,37.34375,-1.546875,-24.546875
1695814281552,1.8977051,0.98846436,-0.11187744,-47.890625,8.46875,-6.8125
1695814281589,1.2143555,-0.30108643,0.05340576,-9.75,14.078125,14.546875
1695814281625,0.87841797,-0.8640747,-0.09161377,-24.96875,-10.515625,-4.921875
1695814281676,0.29077148,-0.08453369,-0.04058838,-24.46875,-8.046875,-11.734375
1695814281714,0.28979492,0.22943115,0.0680542,-8.71875,1.53125,-3.8125
1695814281750,0.43945312,0.078552246,0.035339355,-15.515625,4.3125,-4.25
1695814281790,0.52783203,0.022155762,0.23138428,4.625,18.046875,10.203125
1695814281826,0.8022461,-0.18170166,0.2975464,5.921875,50.09375,10.96875
1695814281865,1.6464844,-0.26837158,-0.13409424,-17.046875,3.75,13.890625
1695814281913,1.5541992,-0.070617676,0.34783936,-5.453125,10.71875,-1.40625
1695814281953,1.4897461,-0.38189697,-0.0115356445,7.6875,-12.703125,-21.515625
1695814281988,1.1633301,-0.3213501,-0.4553833,16.875,-9.890625,1.25
1695814282025,0.8930664,0.22625732,-0.3591919,-34.703125,-2.578125,13.234375
1695814282064,1.2434082,0.09295654,-0.42755127,-25.703125,15.171875,32.40625
1695814282101,0.95654297,-0.5401001,-0.26593018,-9.328125,-1.125,-7.703125
1695814282151,0.7648926,-0.03302002,-0.08404541,-3.546875,-2.5,-27.90625
1695814282188,0.8977051,0.49041748,0.121520996,14.484375,3.5625,19.765625
1695814282227,0.38720703,0.19818115,0.040222168,16.625,-16.890625,33.0625
1695814282269,0.3149414,-0.41046143,-0.07354736,10.328125,7.28125,8.15625
1695814282301,0.48266602,-0.6812134,-0.051086426,11.734375,11.671875,-19.5
1695814282338,0.7861328,-0.18682861,0.13128662,23.984375,2.46875,-2.390625
1695814282388,1.5554199,-0.04425049,-0.06304932,24.875,-11.71875,-1.3125
1695814282426,1.8342285,-0.43658447,0.22747803,4.3125,-8.390625,6.078125
1695814282465,1.3513184,-0.45513916,-0.058898926,-0.09375,-23.546875,8.796875
1695814282502,0.9211426,-0.058898926,-0.26031494,-1.71875,-22.09375,-16.828125
1695814282539,0.76049805,0.30047607,-0.28155518,36.84375,-13.421875,-39.4375
1695814282588,1.7272949,0.5270386,-0.14215088,-5.828125,2.765625,-19.40625
1695814282626,1.34375,-0.28179932,0.0072631836,-13.015625,21.171875,23.75
1695814282665,0.907959,-0.64312744,-0.18927002,-11.640625,-12.40625,-4.6875
1695814282706,0.32250977,0.031433105,-0.011779785,-21.6875,2.46875,-5.8125
1695814282738,0.23364258,0.14984131,0.11053467,-8.453125,1.0625,3.5625
1695814282775,0.4350586,-0.1729126,0.041931152,-7.921875,12.234375,-3.46875
1695814282825,0.7453613,-0.13726807,0.19622803,-6.890625,7.96875,7.46875
1695814282862,0.93652344,-0.10089111,0.20770264,-2.71875,4.921875,17.65625
1695814282901,1.2380371,-0.4102173,0.035339355,-10.28125,1.09375,5.890625
1695814282939,1.894043,-0.2144165,0.29534912,-7.453125,11.625,-20.78125
1695814282976,1.5532227,-0.1182251,-0.10992432,-9.8125,-10.8125,-24.15625
1695814283015,0.8769531,0.21820068,-0.58380127,-12.015625,-15.265625,4.203125
1695814283063,0.8479004,0.29241943,-0.32720947,1.3125,16.75,37.8125
1695814283104,1.4931641,-0.35211182,-0.27545166,1.078125,0.078125,18.0
1695814283140,1.1479492,-0.32696533,-0.05718994,19.5,-12.171875,-39.296875
1695814283176,0.95532227,0.06536865,0.06390381,-27.65625,-1.078125,-5.578125
1695814283214,0.5229492,0.36566162,0.20111084,12.25,-15.234375,18.46875
1695814283252,0.13134766,0.07659912,0.010681152,14.578125,-26.8125,19.15625
1695814283301,0.22265625,-0.4973755,-0.0869751,17.234375,24.15625,-4.796875
1695814283337,0.77075195,-0.51275635,0.089782715,-0.140625,26.984375,-15.8125
1695814283376,1.2409668,-0.25958252,0.03778076,24.109375,7.203125,-4.53125
1695814283413,1.574707,-0.1675415,-0.0335083,20.40625,4.53125,5.84375
1695814283451,1.5361328,-0.26348877,0.08416748,20.890625,-16.3125,13.203125
1695814283539,1.2495117,-0.40411377,-0.24127197,5.1875,-24.578125,1.359375
1695814283541,0.6218262,-0.21685791,-0.53131104,-8.4375,-13.03125,-27.3125
1695814283576,1.4538574,0.43255615,-0.046691895,-32.203125,-18.296875,-33.515625
1695814283614,1.5839844,0.48529053,0.18133545,-18.46875,23.21875,15.734375
1695814283651,0.99316406,-0.7280884,-0.066467285,-17.484375,1.015625,1.34375
1695814283689,0.3161621,-0.5720825,-0.10845947,-38.09375,-13.5625,-9.390625
1695814283728,0.21386719,0.12884521,0.06097412,-25.359375,-3.6875,1.21875
1695814283776,0.36376953,0.085632324,0.051208496,10.484375,17.828125,-1.546875
1695814283813,0.59887695,0.11981201,0.08709717,-15.265625,16.375,11.671875
1695814283850,0.93774414,-0.17755127,0.17401123,27.984375,10.046875,24.125
1695814283888,1.7414551,-0.18170166,-0.08306885,19.453125,13.8125,-9.71875
1695814283925,1.6044922,-0.24761963,0.559021,-48.65625,7.984375,1.34375
1695814283963,1.2785645,-0.60357666,0.09881592,-20.3125,-18.71875,-20.828125
1695814284012,0.9645996,0.073913574,-0.65216064,39.640625,-14.4375,-11.6875
1695814284051,0.70288086,0.789978,-0.25836182,-29.6875,-7.90625,37.90625
1695814284088,1.4108887,0.061950684,-0.45977783,33.625,28.734375,48.484375
1695814284126,1.3688965,-1.0501099,0.04046631,27.171875,-0.875,-40.90625
1695814284164,0.7697754,0.08026123,-0.054992676,-33.984375,-23.140625,-25.4375
1695814284203,0.5422363,0.7050171,0.16400146,30.3125,-7.59375,18.140625
1695814284251,0.29223633,0.23138428,0.13128662,12.0625,-3.71875,36.21875
1695814284287,0.43945312,-0.6091919,-0.09234619,15.15625,17.203125,-1.75
1695814284326,0.7819824,-0.66534424,0.029724121,9.78125,22.09375,-25.78125
1695814284364,0.9589844,0.055114746,6.713867E-4,15.34375,2.890625,-4.15625
1695814284404,1.6599121,0.20574951,0.06097412,28.96875,0.734375,1.109375
1695814284438,1.7653809,-0.5083618,0.12445068,13.078125,-19.796875,3.453125
1695814284487,1.1508789,-0.581604,-0.042053223,-4.796875,-32.234375,3.578125
1695814284526,0.63549805,-0.10748291,-0.4841919,-1.984375,-12.078125,-12.203125
1695814284563,0.814209,0.3300171,-0.1350708,26.375,-16.046875,-26.3125
1695814284601,1.8115234,0.9935913,0.010681152,-15.015625,20.046875,-23.03125
1695814284638,1.3706055,-0.677063,0.07659912,-25.171875,23.546875,19.75
1695814284676,0.6999512,-0.7769165,-0.17315674,-17.921875,-12.203125,11.03125
1695814284727,0.029296875,0.020935059,-0.06939697,-31.3125,1.265625,-7.375
1695814284764,0.26953125,0.1798706,0.15032959,-21.90625,8.796875,-0.671875
1695814284800,0.6459961,-0.06329346,0.15057373,-16.296875,16.0,0.875
1695814284837,0.99780273,-0.085998535,0.37176514,-4.5625,23.03125,7.84375
1695814284875,1.1953125,-0.35186768,0.048034668,-1.5,-12.296875,23.234375
1695814284913,1.2016602,0.0018920898,0.015563965,-25.203125,-0.84375,3.078125
1695814284963,1.6425781,-0.101867676,0.33465576,-12.890625,22.3125,-6.390625
1695814285001,1.4943848,-0.25738525,-0.47906494,13.53125,-17.609375,-20.8125
1695814285039,0.9592285,0.19671631,-0.63360596,-29.65625,-18.90625,6.328125
1695814285076,1.1398926,0.38006592,-0.16802979,-17.921875,26.28125,42.546875
1695814285113,1.1767578,-0.4837036,-0.21954346,23.515625,-7.109375,-4.421875
1695814285152,0.80200195,-0.5454712,-0.08795166,-14.078125,-20.453125,-52.9375
1695814285200,0.93652344,0.2994995,0.027038574,-18.25,-3.234375,4.25
1695814285239,0.5515137,0.54852295,0.13763428,26.15625,-19.96875,29.46875
1695814285276,0.17944336,-0.051574707,-0.0020141602,13.859375,2.28125,11.53125
1695814285313,0.4650879,-0.74224854,-0.013000488,2.828125,39.078125,-16.609375
1695814285350,0.8989258,-0.25811768,0.19451904,4.390625,17.75,-1.546875
1695814285387,1.2370605,-0.24786377,-0.0491333,30.171875,3.265625,20.6875
1695814285438,1.5712891,-0.010803223,-0.015197754,2.71875,13.578125,8.953125
1695814285476,1.3972168,-0.48931885,0.08465576,-5.609375,-9.53125,12.515625
1695814285514,0.9279785,-0.11480713,-0.47711182,2.59375,-22.609375,-6.265625
1695814285550,0.8149414,0.25213623,-0.3093872,44.28125,-11.3125,-31.71875
1695814285601,1.8305664,0.87615967,-0.2131958,-19.59375,10.390625,-16.140625
1695814285626,1.2915039,-0.4290161,-0.09844971,-8.390625,13.25,14.828125
1695814285676,0.8479004,-0.72369385,-0.19366455,-0.640625,-20.859375,-10.09375
1695814285713,0.40185547,0.14105225,-0.0413208,-32.078125,-14.6875,-16.515625
1695814285751,0.38061523,0.27044678,0.14788818,0.78125,-2.734375,-0.046875
1695814285788,0.5148926,-0.13067627,-0.045959473,9.390625,4.53125,-2.5
1695814285827,0.6635742,-0.19146729,0.1473999,-3.515625,19.40625,3.765625
1695814285866,0.86279297,-0.054504395,0.23065186,11.265625,9.546875,6.0
1695814285913,1.1547852,-0.19317627,-0.06402588,-0.90625,1.734375,2.78125
1695814285950,1.7229004,-0.17462158,0.23773193,-10.125,8.53125,-8.265625
1695814285988,1.6850586,-0.2642212,-0.11993408,11.28125,-15.46875,-17.796875
1695814286027,1.2727051,0.18475342,-0.53082275,-1.203125,-19.8125,7.359375
1695814286063,1.0292969,0.051940918,-0.269104,-32.015625,-1.859375,38.9375
1695814286114,0.9746094,-0.472229,-0.5232544,25.796875,6.265625,7.3125
1695814286150,1.0947266,-0.347229,-0.057434082,-6.15625,5.328125,-37.65625
1695814286200,1.4477539,0.17694092,0.02923584,-33.1875,-3.4375,1.671875
1695814286225,0.5415039,0.45355225,0.1395874,4.75,-17.0625,11.4375
1695814286262,-0.1171875,0.06121826,0.014343262,5.078125,-20.625,19.15625
1695814286300,0.024658203,-0.73565674,-0.038635254,-0.859375,6.09375,7.0625
1695814286351,0.7583008,-0.5149536,0.24212646,21.8125,18.546875,-26.84375
1695814286388,1.2128906,-0.038879395,-0.035705566,21.5,-2.078125,-3.1875
1695814286428,1.7399902,0.09246826,-0.038635254,25.3125,19.59375,6.4375
1695814286462,1.6140137,-0.553772,0.23699951,15.828125,-22.828125,21.15625
1695814286500,1.2509766,-0.64263916,-0.27667236,1.59375,-18.9375,-9.15625
1695814286537,0.85595703,-0.15167236,-0.585022,17.5625,-29.109375,-31.890625
1695814286588,1.2243652,0.5355835,0.050231934,-23.734375,-15.1875,-32.6875
1695814286627,1.4277344,0.7445679,0.06488037,-14.796875,11.125,16.28125
1695814286664,1.2346191,-0.5623169,-0.08135986,-9.765625,15.296875,21.3125
1695814286701,0.56884766,-0.62945557,-0.1116333,-11.59375,-13.09375,-2.640625
1695814286737,0.37109375,-0.0015258789,0.04925537,-36.953125,5.09375,-4.984375
1695814286776,0.53759766,0.035095215,0.030944824,-16.125,-0.40625,-10.875
1695814286864,0.5185547,0.09051514,0.11273193,-22.1875,-2.59375,-6.296875
1695814286866,0.5341797,0.008972168,0.27142334,-6.421875,9.71875,10.78125
1695814286902,0.9313965,-0.2510376,0.21502686,16.734375,18.28125,4.59375
1695814286939,1.5019531,-0.3164673,-0.0071411133,22.828125,34.1875,-10.859375
1695814286979,1.6499023,-0.11529541,0.4923706,-24.09375,5.53125,4.390625
1695814287012,1.3920898,-0.3743286,-0.06427002,4.921875,-24.078125,-13.078125
1695814287062,0.90063477,-0.11846924,-0.30377197,-16.75,0.984375,-5.875
1695814287101,0.78466797,0.12713623,-0.4656372,-11.125,-5.421875,20.5
1695814287137,1.3518066,0.1317749,-0.6182251,7.59375,20.84375,18.4375
1695814287175,1.3498535,-0.33551025,0.025817871,-2.921875,16.453125,1.609375
1695814287215,0.9909668,-0.11090088,-0.0020141602,-13.734375,-4.140625,-12.890625
1695814287250,0.6052246,0.19207764,0.15179443,-1.3125,-9.265625,3.640625
1695814287300,0.26611328,0.12738037,-0.07525635,43.203125,-18.03125,32.546875
1695814287338,0.4416504,-0.42364502,0.06878662,11.0,3.296875,13.203125
1695814287378,0.5974121,-0.57403564,-0.05279541,11.921875,6.375,-21.453125
1695814287415,0.7116699,-0.113586426,0.14544678,21.578125,-9.453125,-10.140625
1695814287451,1.2026367,0.1005249,0.11029053,28.796875,17.796875,0.171875
1695814287487,1.999939,-0.27130127,-0.004699707,12.15625,-11.015625,9.828125
1695814287537,1.5407715,-0.5862427,0.016540527,5.046875,-15.015625,10.609375
1695814287589,1.0830078,-0.042297363,-0.42022705,0.078125,-18.265625,-9.375
1695814287615,0.9074707,0.26068115,-0.11505127,19.375,-23.34375,-21.78125
1695814287651,1.0361328,0.37615967,-0.054992676,-3.234375,-1.390625,-15.8125
1695814287688,1.3149414,-0.1885376,-0.046203613,11.078125,9.6875,9.609375
1695814287728,1.0998535,-0.40020752,0.0079956055,-9.71875,-20.765625,-0.78125
1695814287777,0.670166,-0.20147705,-0.11456299,-27.578125,-11.046875,-0.46875
1695814287813,0.30297852,-0.013977051,0.08514404,-27.625,-2.34375,-11.71875
1695814287851,0.24145508,0.0138549805,0.14178467,-9.328125,4.515625,-11.125
1695814287887,0.5891113,0.05609131,0.31414795,1.390625,-3.515625,13.0625
1695814287927,0.88671875,-0.20953369,0.2538452,4.546875,0.234375,5.171875
1695814287964,1.065918,-0.49884033,-0.015930176,-20.6875,11.140625,-5.734375
1695814288015,1.4804688,-0.032043457,0.38909912,-7.65625,9.171875,4.984375
1695814288051,1.6333008,0.055603027,0.24554443,4.21875,-7.3125,-19.671875
1695814288088,1.2163086,-0.08770752,-0.40631104,-3.203125,0.96875,2.890625
1695814288126,0.74975586,0.07220459,-0.31988525,-9.125,-5.265625,33.109375
1695814288163,1.0124512,-0.2185669,-0.24859619,-9.125,15.0,21.21875
1695814288199,1.4501953,-0.41680908,-0.004699707,-7.953125,0.859375,-32.84375
1695814288250,1.4360352,-0.07305908,0.034118652,-26.5625,1.546875,-21.421875
1695814288288,0.76342773,0.20184326,0.17279053,-21.5,-17.296875,14.875
1695814288326,0.14794922,0.113464355,0.027038574,5.90625,-17.859375,19.75
1695814288363,0.04321289,-0.35235596,0.0053100586,-2.734375,9.671875,9.65625
1695814288402,0.5253906,-0.47174072,0.109802246,4.875,14.65625,-15.046875
1695814288438,0.97998047,-0.07989502,0.05218506,4.65625,22.40625,-7.796875
1695814288488,1.4055176,0.06561279,0.14886475,41.90625,41.8125,13.734375
1695814288530,1.8103027,-0.58306885,0.074401855,-7.953125,35.140625,39.234375
1695814288563,1.3439941,-0.5342407,-0.1494751,-5.96875,-14.109375,14.578125
1695814288601,0.9628906,0.030700684,-0.71954346,5.796875,-24.890625,-20.578125
1695814288639,1.0690918,0.3912964,-0.2432251,0.328125,-13.90625,-44.59375
1695814288676,1.322998,0.8920288,-0.35650635,5.578125,7.75,-1.875
1695814288728,1.3637695,-0.3345337,-0.038635254,4.453125,15.4375,16.765625
1695814288764,0.829834,-0.48736572,-0.13409424,-2.765625,-14.171875,-15.0
1695814288800,0.49316406,-0.16339111,0.0036010742,-20.59375,-7.703125,5.171875
1695814288838,0.3708496,-0.018371582,-0.03277588,-7.46875,-10.0,-2.40625
1695814288876,0.4567871,-0.117492676,0.02557373,-24.421875,4.9375,-18.75
1695814288914,0.6323242,-0.097717285,0.2345581,0.65625,7.859375,-1.984375
1695814288964,0.85668945,-0.06060791,0.17816162,9.28125,18.078125,-0.671875
1695814289000,1.1237793,-0.16046143,0.047302246,7.5625,14.3125,3.453125
1695814289039,1.6398926,-0.09552002,0.24822998,-11.03125,0.921875,2.609375
1695814289076,1.4121094,-0.40142822,0.066345215,7.015625,-4.390625,-12.859375
1695814289114,1.0102539,-0.2432251,-0.39385986,9.90625,-12.578125,-8.796875
1695814289151,0.8864746,0.25408936,-0.5601196,5.03125,-9.640625,9.421875
1695814289200,1.333252,0.49041748,-0.41436768,-1.21875,28.328125,34.859375
1695814289246,1.4731445,-0.5088501,-0.3225708,0.96875,10.203125,14.109375
1695814289277,0.80810547,-0.30010986,-0.02911377,-5.96875,-11.71875,-24.84375
1695814289313,0.68725586,0.1864624,-0.02960205,4.90625,7.234375,-5.15625
1695814289350,0.625,0.38446045,0.1251831,14.8125,-16.1875,29.28125
1695814289399,0.4506836,-0.06085205,-0.06402588,40.953125,-26.8125,7.59375
1695814289438,0.43823242,-0.52349854,-0.14776611,49.890625,0.703125,-23.203125
1695814289479,0.7561035,-0.22198486,0.062683105,23.984375,2.609375,-14.34375
1695814289512,1.1611328,-0.09576416,0.09466553,26.046875,10.390625,13.140625
1695814289550,1.7231445,-0.35699463,-0.00592041,15.953125,-6.328125,4.328125
1695814289587,1.5307617,-0.5130005,0.074401855,7.78125,-30.046875,2.9375
1695814289638,1.0637207,-0.093322754,-0.34381104,9.546875,-22.515625,-0.75
1695814289678,0.64819336,-0.06402588,-0.5564575,4.765625,-10.421875,-22.203125
1695814289713,1.4562988,0.480896,0.22479248,-18.671875,10.515625,-33.921875
1695814289751,1.5773926,0.2111206,-0.22125244,-1.140625,18.578125,30.25
1695814289787,0.9819336,-0.97369385,-0.051330566,-33.21875,-11.328125,21.046875
1695814289827,0.09472656,-0.34942627,-0.26202393,-31.25,-5.796875,-22.78125
1695814289914,0.16064453,0.3012085,0.09539795,-38.671875,12.453125,-9.96875
1695814289916,0.5629883,0.23529053,0.19744873,-15.78125,5.703125,10.171875
1695814289951,0.795166,0.09588623,0.22357178,0.484375,-0.09375,10.28125
1695814289988,1.0703125,-0.030334473,0.18475342,20.203125,-7.640625,-2.296875
1695814290026,1.5439453,0.042175293,0.24383545,2.21875,-0.890625,-6.90625
1695814290064,1.4377441,-0.33599854,0.2970581,-11.984375,-4.9375,7.265625
1695814290114,1.2563477,-0.5227661,-0.023254395,6.234375,-15.84375,-21.34375
1695814290151,0.9892578,0.15130615,-0.44171143,12.40625,-1.578125,-8.546875
1695814290191,1.2788086,0.43548584,-0.395813,-20.25,22.921875,36.703125
1695814290225,1.3654785,-0.29327393,-0.286438,-2.515625,-4.3125,25.34375
1695814290263,0.77978516,-0.7058716,-0.023498535,-1.65625,-6.140625,-30.421875
1695814290351,0.74731445,-0.008361816,-0.10089111,-17.140625,6.78125,-18.984375
1695814290353,0.7692871,0.47698975,0.2675171,-7.8125,1.015625,18.84375
1695814290390,0.4494629,0.12347412,0.117370605,2.015625,-3.296875,27.25
1695814290427,0.31835938,-0.5322876,-0.15435791,12.9375,6.65625,2.8125
1695814290467,0.5187988,-0.6135864,-0.055480957,-8.875,26.484375,-12.21875
1695814290500,0.986084,-0.17510986,0.19476318,23.171875,4.796875,-1.0625
1695814290537,1.8544922,-0.17877197,-0.13824463,18.28125,-29.40625,-9.984375
1695814290589,1.5153809,-0.47857666,0.34197998,1.84375,-23.71875,0.09375
1695814290626,1.342041,-0.45098877,0.022155762,15.96875,-19.515625,-10.140625
1695814290665,0.8371582,-0.07501221,-0.45806885,0.390625,-11.34375,-8.375
1695814290701,0.9304199,0.27947998,-0.47784424,30.515625,-1.828125,-17.375
1695814290737,1.5407715,0.8390503,0.32635498,-43.84375,2.40625,4.65625
1695814290775,1.1730957,-0.5393677,0.06048584,-48.375,3.515625,23.171875
1695814290827,0.6308594,-0.8635864,-0.28546143,-13.734375,7.453125,-9.546875
1695814290865,0.23144531,0.10418701,0.03265381,-20.390625,16.265625,9.9375
1695814290903,0.23144531,0.29022217,0.032165527,16.34375,2.875,2.34375
1695814290936,0.6413574,-0.054748535,0.109069824,-12.40625,26.328125,0.796875
1695814290975,1.126709,-0.23223877,0.09173584,-15.90625,18.265625,25.921875
1695814291012,1.4628906,-0.04034424,0.109802246,-6.03125,6.84375,0.84375
1695814291063,1.5705566,-0.12408447,0.2321167,-33.578125,16.875,-1.59375
1695814291101,1.2419434,-0.38238525,0.3661499,-17.921875,-14.53125,-20.203125
1695814291139,0.8955078,-0.6355591,-0.63067627,-4.25,-14.0,-28.109375
1695814291178,0.40893555,0.4718628,-0.51763916,28.171875,-60.6875,-2.578125
1695814291215,1.6738281,1.364685,-0.37945557,78.59375,51.515625,33.578125
1695814291251,1.999939,-0.4595337,0.25750732,25.296875,-25.859375,22.90625
1695814291300,0.42285156,-0.78131104,-0.26202393,-7.015625,-34.078125,-39.015625
1695814291337,0.21801758,0.024353027,6.713867E-4,-7.03125,26.609375,-8.5625
1695814291376,0.5449219,0.44891357,0.2892456,35.65625,-6.5,30.703125
1695814291413,0.6882324,0.12860107,-0.014709473,23.40625,-2.171875,9.859375
1695814291462,0.5878906,-0.4397583,-0.02960205,26.078125,25.1875,-16.40625
1695814291489,0.7570801,-0.378479,0.057556152,27.53125,12.046875,-2.875
1695814291537,1.6027832,-0.43829346,-0.077697754,36.890625,-6.359375,11.140625
1695814291576,1.5507812,-0.41241455,0.1774292,-1.109375,-7.046875,0.0
1695814291613,1.1828613,-0.30474854,-0.44000244,4.3125,-28.5,-7.984375
1695814291650,0.9506836,0.17108154,-0.31817627,15.8125,-17.765625,-9.203125
1695814291687,1.2961426,0.77459717,-0.11773682,-1.546875,-1.75,-27.90625
1695814291726,1.3515625,-0.1260376,-0.09185791,-31.640625,19.96875,6.578125
1695814291775,1.2338867,-0.7385864,0.0289917,-14.5,4.90625,2.640625
1695814291813,0.45654297,-0.012756348,-0.10064697,-11.9375,-9.09375,-1.09375
1695814291862,0.24023438,0.20233154,0.18963623,-36.296875,17.9375,12.59375
1695814291888,0.42822266,-0.1453247,0.06048584,-17.203125,11.6875,-4.890625
1695814291926,0.48779297,-0.1963501,-0.09967041,-1.0625,-1.171875,-13.375
1695814291963,0.7619629,0.24871826,0.31488037,8.25,-6.453125,15.171875
1695814292012,1.1813965,-0.2263794,0.12298584,9.40625,29.34375,15.25
1695814292050,1.999939,-0.29571533,0.22723389,-19.453125,-10.234375,-2.5
1695814292101,1.2646484,-0.33111572,0.27313232,-30.265625,-13.515625,-11.171875
1695814292126,0.8173828,-0.21270752,-0.53009033,5.59375,-11.859375,-18.21875
1695814292163,1.0263672,0.27703857,-0.6638794,-26.328125,-4.3125,12.8125
1695814292199,1.7058105,0.39154053,-0.222229,-7.734375,18.015625,27.34375
1695814292250,1.1479492,-0.13214111,-0.08111572,11.53125,-9.390625,8.40625
1695814292287,0.6730957,-0.08380127,0.029968262,-0.078125,5.59375,-14.90625
1695814292350,0.58740234,-0.08502197,0.11175537,15.171875,8.921875,0.421875
1695814292389,0.46655273,0.10321045,-0.08282471,23.3125,-17.328125,18.78125
1695814292401,0.26000977,-0.105773926,-0.0022583008,0.609375,-0.859375,3.859375
1695814292438,0.5114746,-0.36602783,0.06561279,0.828125,31.484375,-12.03125
1695814292487,1.1882324,-0.31622314,6.713867E-4,53.546875,12.6875,-5.3125
1695814292526,1.9152832,-0.30133057,-0.0022583008,26.0,3.15625,0.03125
1695814292563,1.3869629,-0.058410645,0.1564331,-1.78125,-29.1875,10.296875
1695814292600,1.3273926,-0.5100708,-0.3291626,5.0625,-14.5,4.0
1695814292637,0.8659668,-0.077697754,-0.5508423,13.359375,-12.828125,-19.046875
1695814292677,0.9326172,0.53656006,0.09124756,-7.328125,-8.375,-32.484375
1695814292724,1.2570801,0.62713623,-0.11431885,-0.609375,9.28125,9.65625
1695814292764,1.2375488,-0.8389282,-0.066467285,2.21875,1.3125,15.96875
1695814292801,0.56347656,-0.4590454,-0.1831665,-14.390625,-14.734375,-14.265625
1695814292838,0.5202637,0.1720581,0.09466553,-31.078125,-7.625,-12.421875
1695814292876,0.47436523,0.11956787,-0.002746582,-7.140625,-21.46875,-22.984375
1695814292927,0.42333984,0.1083374,0.06756592,-6.53125,-1.984375,2.828125
1695814292964,0.7141113,-0.08013916,0.30755615,3.328125,31.875,29.96875
1695814293002,1.2209473,-0.5315552,0.28460693,-17.609375,12.75,2.578125
1695814293038,1.5622559,-0.31402588,0.014587402,-17.140625,-1.0625,-9.4375
1695814293077,1.3320312,0.15692139,0.38226318,-7.859375,2.3125,-11.546875
1695814293113,1.1513672,-0.2119751,-0.39752197,13.109375,-7.609375,-4.203125
1695814293164,1.0625,0.016052246,-0.8340454,0.5625,2.421875,26.265625
1695814293217,1.3195801,0.39666748,-0.13116455,-18.109375,15.84375,28.453125
1695814293237,1.2021484,-0.49224854,-0.14434814,-6.046875,-2.296875,-0.46875
1695814293276,0.6459961,-0.27105713,-0.11968994,-15.015625,-1.453125,-33.8125
1695814293313,0.873291,0.2374878,0.09686279,-12.015625,12.796875,9.109375
1695814293350,0.6640625,0.43621826,0.0446167,10.453125,-15.46875,35.109375
1695814293403,0.24902344,0.035827637,0.013366699,4.34375,-0.984375,15.328125
1695814293439,0.45214844,-0.5112915,0.018005371,28.3125,18.65625,-15.0625
1695814293475,0.95874023,-0.4524536,-0.017150879,31.125,1.828125,-8.953125
1695814293513,1.4816895,-0.270813,0.15228271,22.640625,-13.796875,0.453125
1695814293550,1.6025391,-0.24273682,0.16278076,-3.1875,-14.734375,-14.234375
1695814293587,1.182373,-0.6292114,-0.085754395,4.703125,-30.515625,-15.515625
1695814293677,0.85961914,-0.22296143,-0.4138794,-3.796875,-1.734375,-18.59375
1695814293684,1.3049316,0.47747803,-0.089416504,-11.0625,-7.1875,-20.859375
1695814293713,1.4353027,0.5597534,-0.07940674,-50.484375,0.15625,-23.03125
1695814293763,1.1616211,-0.3965454,0.06756592,-10.03125,18.28125,10.5625
1695814293787,0.89501953,-0.5823364,-0.05596924,-34.515625,-1.890625,10.09375
1695814293826,0.45166016,-0.053771973,-0.09454346,-21.171875,-8.046875,5.390625
1695814293875,0.28076172,0.19158936,0.048034668,-24.0,-1.59375,-17.0
1695814293913,0.5061035,0.039733887,0.1281128,-12.5,22.890625,-8.375
1695814293951,0.7573242,-0.018127441,0.3361206,2.078125,-6.171875,15.859375
1695814293990,1.1291504,-0.48223877,0.33538818,9.984375,31.421875,11.625
1695814294026,1.3283691,-0.4981079,-0.23199463,10.234375,-1.078125,-14.484375
1695814294064,1.1359863,-0.030578613,0.5297241,-28.453125,9.921875,-21.578125
1695814294114,1.421875,-0.29840088,-0.15020752,20.875,-13.546875,-12.796875
1695814294151,0.90771484,-0.05645752,-0.5064087,5.296875,-4.0625,16.65625
1695814294188,1.3027344,0.8114624,-0.6499634,10.875,5.59375,33.890625
1695814294238,1.4128418,-0.28741455,-0.101379395,-0.78125,21.75,13.859375
1695814294287,0.8820801,-0.50372314,0.054138184,24.53125,-0.71875,-23.8125
1695814294300,0.7229004,0.022888184,0.070251465,3.46875,-0.890625,-3.515625
1695814294350,0.47021484,0.22845459,0.036071777,15.203125,-23.75,32.328125
1695814294387,0.2619629,-0.17510986,-0.058654785,22.21875,2.0,23.4375
1695814294426,0.4050293,-0.49053955,-0.09576416,13.703125,25.453125,-8.296875
1695814294463,0.8847656,-0.41827393,0.031188965,11.046875,20.953125,-16.09375
1695814294500,1.4775391,-0.18756104,-0.113342285,20.125,-0.671875,-8.546875
1695814294537,1.7431641,-0.116760254,0.020202637,15.078125,-12.703125,8.859375
1695814294588,1.5400391,-0.4216919,0.027526855,12.734375,-25.4375,6.875
1695814294638,0.9316406,-0.2649536,-0.37286377,6.09375,-33.34375,0.859375
1695814294663,0.54663086,-0.12799072,-0.5215454,5.328125,-13.0625,-14.25
1695814294701,1.375,0.4862671,0.10369873,0.625,2.6875,-36.1875
1695814294738,1.5952148,0.048034668,-0.13677979,-15.796875,15.984375,13.953125
1695814294775,0.95092773,-0.6577759,-0.019348145,-29.953125,-13.21875,17.234375
1695814294825,0.25878906,-0.13580322,-0.11065674,-15.515625,-3.0625,1.796875
1695814294864,0.1821289,0.09539795,0.11785889,-24.046875,6.625,0.265625
1695814294900,0.6164551,-0.20709229,-0.04058838,-14.9375,12.1875,0.609375
1695814294938,0.8552246,-0.19122314,0.11810303,-19.953125,12.28125,-0.796875
1695814294976,0.98583984,0.04925537,0.3624878,-15.5,0.03125,9.671875
1695814295015,1.3986816,-0.085998535,0.1942749,-14.34375,-8.71875,12.78125
1695814295063,1.5805664,-0.5256958,0.2772827,-19.4375,13.484375,-9.609375
1695814295102,1.1276855,-0.1843872,0.0848999,-20.5,-22.609375,-26.640625
1695814295137,0.6604004,-0.1038208,-0.48614502,-28.015625,-15.65625,-14.015625
1695814295176,0.7011719,0.5228882,-0.6123657,-1.34375,0.46875,11.53125
1695814295213,1.999939,0.5409546,-0.3460083,23.546875,22.671875,23.578125
1695814295251,1.2355957,-0.37408447,0.073913574,27.078125,-17.859375,8.546875
1695814295301,0.42993164,-0.43267822,-0.058654785,-13.796875,-10.046875,-29.71875
1695814295337,0.45507812,0.0060424805,0.23309326,-2.9375,8.421875,11.21875
1695814295388,0.5217285,0.031921387,-0.14215088,62.796875,-1.59375,23.59375
1695814295414,0.5385742,0.0018920898,0.06903076,-15.34375,20.140625,10.484375
1695814295451,0.6748047,-0.33648682,0.17791748,2.59375,33.3125,-16.4375
1695814295492,1.2302246,-0.5606079,0.06585693,28.671875,-11.375,-5.4375
1695814295540,1.7180176,-0.35284424,-0.101379395,25.125,0.46875,4.53125
1695814295588,1.3869629,-0.19488525,0.22601318,4.734375,-12.484375,-1.15625
1695814295612,1.0761719,-0.28302002,-0.09942627,-1.953125,-35.71875,-4.046875
1695814295651,0.70947266,-0.10699463,-0.67071533,44.578125,-14.765625,-17.8125
1695814295687,1.1870117,0.47088623,0.085876465,-5.25,-4.109375,-21.578125
1695814295726,1.5693359,0.42962646,-0.15240479,-12.453125,2.515625,13.859375
1695814295777,1.1191406,-0.67755127,-0.055725098,-8.921875,8.453125,14.046875
1695814295812,0.4921875,-0.5354614,-0.10797119,-17.4375,-4.5625,-2.828125
1695814295850,0.25439453,0.1461792,0.11273193,-13.90625,5.65625,0.296875
1695814295888,0.53637695,0.0680542,0.034362793,-8.671875,6.03125,3.875
1695814295926,0.6513672,-0.22296143,0.04901123,-12.75,8.96875,-1.28125
1695814295965,0.7487793,-0.11480713,0.2243042,-20.578125,13.5,8.484375
1695814296026,1.0720215,-0.12921143,0.05731201,-6.578125,-2.125,7.65625
1695814296052,1.6552734,-0.034973145,0.10882568,-12.5,21.5,-22.703125
1695814296101,1.4396973,-0.0803833,0.44989014,-20.0625,-1.5625,-24.203125
1695814296126,0.8815918,-0.54888916,-0.6021118,29.296875,-25.5625,-11.609375
1695814296168,0.7492676,0.11859131,-0.6133423,-21.5625,7.9375,7.984375
1695814296212,1.9125977,0.6334839,-0.21124268,7.375,8.09375,31.859375
1695814296250,1.262207,-0.63653564,-0.12945557,6.578125,-15.234375,-13.203125
1695814296300,0.86743164,-0.37286377,-0.051086426,-1.921875,-8.984375,-26.703125
1695814296325,0.77856445,0.39276123,0.022644043,4.40625,-3.578125,17.234375
1695814296376,0.4025879,0.23187256,0.15008545,4.4375,-9.09375,26.078125
1695814296402,0.3413086,-0.23077393,-0.06695557,-1.609375,13.109375,9.34375
1695814296451,0.5078125,-0.47711182,0.066101074,13.484375,12.765625,-6.71875
1695814296501,0.6989746,-0.16412354,0.0927124,23.84375,2.359375,-2.203125
1695814296526,1.1132812,-0.02960205,0.11419678,48.03125,-6.734375,4.09375
1695814296564,1.8662109,-0.6511841,0.049743652,16.8125,-17.65625,-2.328125
1695814296603,1.3833008,-0.5730591,0.059753418,-8.875,-12.328125,13.484375
1695814296637,1.0390625,-0.07159424,-0.4385376,4.890625,-22.796875,1.640625
1695814296726,1.072998,0.35003662,-0.222229,37.015625,-9.71875,-26.640625
1695814296736,1.9956055,1.046814,-0.08770752,-42.984375,1.796875,-21.484375
1695814296775,1.3813477,-0.25323486,0.22357178,-38.546875,0.90625,29.34375
1695814296801,0.76904297,-0.8364868,-0.05645752,9.8125,-17.59375,-11.0625
1695814296838,0.20336914,-0.22027588,-0.08258057,-20.96875,5.234375,-15.484375
1695814296878,0.30322266,0.06463623,0.014343262,-26.34375,1.828125,4.1875
1695814296925,0.44067383,0.20794678,0.019226074,-20.15625,-4.84375,-6.84375
1695814296964,0.48339844,0.22454834,0.27337646,-11.71875,6.5,7.078125
1695814297001,0.81591797,-0.22271729,0.4179077,7.171875,37.75,17.53125
1695814297040,1.793457,-0.6152954,-0.16265869,-0.234375,22.40625,-3.8125
1695814297088,1.517334,-0.12554932,0.47113037,-25.375,10.3125,-10.859375
1695814297114,1.362793,-0.15118408,0.15814209,-5.46875,-13.484375,-24.125
1695814297202,1.0241699,-0.12188721,-0.66241455,8.203125,-21.421875,-2.5
1695814297205,0.93774414,0.23651123,-0.39801025,4.015625,9.203125,31.921875
1695814297239,1.3637695,0.04486084,-0.17193604,7.296875,19.359375,31.984375
1695814297278,0.9772949,-0.43634033,-0.17779541,21.15625,1.21875,-16.375
1695814297314,0.7512207,-0.24053955,-0.06378174,3.796875,18.28125,-9.125
1695814297350,0.70043945,0.048034668,0.042663574,-8.625,8.46875,22.828125
1695814297404,0.3334961,0.097595215,-0.016174316,20.4375,-13.46875,16.59375
1695814297439,0.22460938,-0.17633057,-6.1035156E-5,17.359375,17.15625,0.65625
1695814297488,0.59814453,-0.48345947,-0.02520752,30.0,13.453125,-6.921875
1695814297513,1.3046875,-0.3633423,-0.20245361,33.78125,15.078125,-5.328125
1695814297550,1.999939,0.00579834,0.11126709,0.859375,-9.765625,-1.59375
1695814297588,1.4267578,-0.4812622,0.16107178,-7.21875,-26.203125,24.46875
1695814297651,1.1271973,-0.46392822,-0.50250244,4.5,-29.546875,2.296875
1695814297675,0.9428711,0.19451904,-0.3945923,9.109375,-23.03125,-13.6875
1695814297713,1.2060547,0.82684326,0.06585693,-28.6875,-10.84375,-41.609375
1695814297763,1.3078613,0.11981201,-0.14190674,10.71875,14.515625,5.734375
1695814297800,1.0175781,-0.58599854,-0.14678955,-3.140625,-6.8125,9.734375
1695814297837,0.57592773,-0.29107666,-0.105041504,-23.09375,-2.546875,-8.25
1695814297875,0.3942871,0.137146,-6.1035156E-5,-26.71875,10.703125,-4.046875
1695814297914,0.3383789,0.0914917,0.0927124,-15.890625,8.140625,-7.9375
1695814297950,0.45507812,0.026550293,0.17376709,2.84375,11.34375,8.46875
1695814297988,0.7141113,-0.08648682,0.20843506,7.65625,-4.140625,18.203125
1695814298027,1.3503418,-0.28131104,-0.022766113,5.0625,4.890625,-9.09375
1695814298064,1.7893066,-0.101379395,0.41766357,-15.421875,3.375,-14.109375
1695814298114,1.3395996,-0.23492432,0.26019287,-6.4375,-23.109375,-17.21875
1695814298150,1.0541992,-0.34259033,-0.8069458,25.203125,-1.3125,-4.234375
1695814298187,1.2053223,0.34661865,-0.32403564,-2.09375,17.15625,33.5
1695814298226,1.5041504,0.1329956,-0.14385986,-31.609375,1.96875,31.421875
1695814298263,0.9538574,-0.6001587,-0.17193604,13.40625,-16.734375,-24.859375
1695814298300,0.85791016,-0.20245361,-0.038391113,-23.796875,-9.125,-24.59375
1695814298351,0.69433594,0.30291748,0.14691162,-20.8125,2.703125,10.015625
1695814298388,0.32128906,0.2255249,0.047058105,2.890625,-13.421875,19.671875
1695814298426,0.19091797,-0.19561768,-0.08258057,10.453125,6.3125,2.265625
1695814298466,0.57055664,-0.5767212,0.086120605,-0.75,19.9375,-13.421875
1695814298500,1.1201172,-0.38311768,0.022399902,23.84375,15.5,-1.15625
1695814298551,1.4187012,-0.066223145,-0.046447754,24.125,-2.75,15.953125
1695814298588,1.560791,-0.24713135,0.03338623,1.34375,13.1875,3.59375
1695814298625,1.3869629,-0.42510986,-0.10699463,1.78125,-28.375,14.671875
1695814298676,1.1520996,-0.12530518,-0.4685669,14.28125,1.28125,-2.671875
1695814298701,1.0974121,0.31170654,-0.23468018,14.53125,3.4375,-22.671875
1695814298738,1.3513184,0.6810913,0.009216309,-49.328125,-6.46875,-4.984375
1695814298777,1.1931152,-0.26739502,-0.009338379,3.59375,15.84375,18.421875
1695814298825,0.65966797,-0.5105591,-0.29815674,-1.265625,-4.609375,-5.828125
1695814298877,0.20898438,-0.07867432,-0.06939697,-35.390625,-8.109375,-1.71875
1695814298899,0.33813477,0.04437256,0.08905029,-7.21875,0.609375,-10.53125
1695814298937,0.5900879,0.00579834,0.030212402,-20.296875,5.96875,-9.046875
1695814298978,0.84521484,0.08929443,0.19158936,14.953125,-10.375,7.53125
1695814299013,1.223877,-0.14556885,0.1828003,10.359375,12.9375,3.828125
1695814299075,1.7268066,-0.17510986,0.046081543,-9.140625,0.234375,-4.03125
1695814299101,1.223877,-0.3447876,0.24627686,-24.046875,-19.015625,-9.703125
1695814299151,1.0817871,-0.24639893,-0.6055298,43.96875,-14.765625,-16.765625
1695814299179,1.0080566,0.57318115,-0.4727173,-14.265625,5.46875,32.828125
1695814299213,1.4814453,0.1359253,-0.16363525,-13.4375,24.078125,40.53125
1695814299250,0.9099121,-0.7749634,-0.2498169,32.390625,-8.4375,-27.203125
1695814299312,0.9970703,-0.14556885,-0.082092285,-2.203125,5.296875,-23.625
1695814299337,0.9863281,0.52752686,0.21209717,-19.359375,-1.90625,20.9375
1695814299375,0.22314453,0.30511475,0.101501465,18.109375,-12.171875,20.421875
1695814299412,0.037841797,-0.44781494,-0.16119385,13.5625,7.6875,5.5625
1695814299451,0.51342773,-0.7930298,0.028015137,16.6875,20.734375,-20.6875
1695814299497,0.97753906,-0.15362549,-0.06085205,23.203125,-1.765625,-3.703125
1695814299539,1.6645508,0.0848999,-0.07550049,15.59375,-4.0,3.453125
1695814299576,1.8452148,-0.1831665,0.11956787,14.421875,-13.84375,-0.765625
1695814299614,1.3930664,-0.43414307,0.020202637,-7.8125,-21.171875,-3.234375
1695814299654,0.80981445,-0.20440674,-0.5095825,21.140625,-26.359375,-19.65625
1695814299701,0.9448242,0.20892334,-0.10015869,-11.6875,-14.25,-35.9375
1695814299737,1.7814941,0.87786865,0.081970215,4.625,-1.8125,-11.921875
1695814299777,1.2946777,-0.13189697,0.13690186,-26.34375,-2.625,24.0625
1695814299812,0.64086914,-0.8777466,-0.15289307,0.671875,-13.140625,-16.4375
1695814299852,0.23632812,-0.18170166,0.007019043,-44.828125,17.328125,3.0
1695814299900,0.2902832,0.18011475,0.105407715,-30.171875,7.359375,5.390625
1695814299939,0.43774414,0.10076904,0.13983154,-11.109375,8.140625,-4.4375
1695814299975,0.74560547,-0.04449463,0.2555542,-8.5,2.859375,4.296875
1695814300012,1.348877,-0.24542236,0.113708496,0.921875,24.953125,6.25
1695814300052,1.6340332,-0.34820557,0.13983154,-16.171875,-2.5625,-2.71875
1695814300090,1.4365234,-0.2029419,0.4442749,-34.109375,1.125,-25.515625
1695814300126,1.1721191,-0.3040161,-0.13824463,-6.640625,-26.28125,-19.1875
1695814300167,0.7272949,0.20843506,-0.5635376,-4.390625,-18.859375,6.515625
1695814300217,1.2519531,0.7555542,-0.45855713,11.859375,42.34375,42.3125
1695814300252,1.2683105,-0.364563,-0.1482544,6.9375,18.265625,20.09375
1695814300288,0.8581543,-0.6543579,0.054138184,6.140625,2.28125,-27.375
1695814300325,0.7927246,0.13787842,0.08441162,-3.359375,3.078125,0.46875
1695814300363,0.56762695,0.3505249,-0.047424316,49.453125,-9.34375,35.90625
1695814300401,0.39379883,-0.11968994,-0.09844971,3.96875,18.703125,19.5
1695814300450,0.42529297,-0.548645,-0.0491333,26.1875,22.609375,-16.609375
1695814300487,0.72143555,-0.35186768,0.12298584,34.59375,13.203125,-13.640625
1695814300526,1.3786621,-0.2000122,-0.10089111,44.234375,-5.453125,-0.0625
1695814300564,1.8562012,-0.13995361,-0.09844971,15.421875,-0.484375,0.09375
1695814300601,1.4780273,-0.47686768,0.008728027,3.53125,-23.5625,14.125
1695814300638,0.939209,-0.051330566,-0.44659424,25.484375,-34.046875,-3.859375
1695814300687,0.72265625,0.13787842,-0.4043579,-4.4375,-17.859375,-22.1875
1695814300725,1.4450684,0.56073,-0.11090088,-17.859375,6.5,-39.734375
1695814300764,1.3752441,-0.13995361,-0.050598145,5.984375,15.375,16.234375
1695814300801,0.8625488,-0.519104,-0.05670166,-33.796875,-19.3125,18.046875
1695814300838,0.3112793,-0.22467041,-0.15777588,-20.03125,-10.90625,0.78125
1695814300878,0.24633789,-0.0413208,0.0119018555,-21.953125,4.546875,-9.25
1695814300926,0.6142578,-0.046447754,0.031921387,-21.078125,9.515625,-9.765625
1695814300964,0.8405762,0.18670654,0.29071045,-2.609375,1.8125,10.328125
1695814301001,0.779541,-0.02178955,0.1383667,13.078125,-10.078125,14.0
1695814301038,1.2197266,-0.44000244,0.028259277,-7.828125,11.109375,-1.484375
1695814301076,1.888916,-0.29083252,0.4249878,-12.40625,5.796875,-14.140625
1695814301115,1.3469238,-0.03277588,-0.06890869,18.234375,-22.8125,-20.59375
1695814301163,1.3540039,0.2411499,-0.74346924,6.109375,-7.875,14.71875
1695814301201,1.138916,-0.043762207,-0.15924072,-25.890625,6.046875,52.6875
1695814301239,0.99780273,-0.34625244,-0.40997314,15.984375,-7.671875,0.578125
1695814301276,0.892334,-0.29742432,-0.042785645,1.0,-8.0625,-39.921875
1695814301313,1.0598145,0.08026123,-0.032043457,-14.125,0.328125,3.5625
1695814301349,0.60009766,0.20599365,0.14569092,-21.625,-12.375,11.234375
1695814301401,0.1484375,-0.043762207,0.050231934,1.953125,-10.453125,10.078125
1695814301438,0.14111328,-0.35650635,-0.0049438477,-0.75,0.921875,2.828125
1695814301478,0.60595703,-0.30914307,0.105651855,22.53125,4.4375,-14.28125
1695814301513,1.2314453,-0.1260376,0.13421631,22.21875,3.578125,-6.015625
1695814301564,1.7893066,-0.23297119,0.09124756,17.90625,26.234375,19.609375
1695814301588,1.5336914,-0.6001587,0.13250732,3.0,-15.21875,11.546875
1695814301637,1.2158203,-0.46099854,-0.33966064,-2.21875,-21.3125,-12.40625
1695814301676,0.9951172,0.010925293,-0.48516846,36.203125,-23.34375,-32.84375
1695814301714,1.5270996,0.77996826,0.13421631,-54.703125,-7.359375,-22.125
1695814301767,1.1921387,0.3973999,0.08929443,-24.03125,14.0625,31.96875
1695814301788,1.0073242,-0.83428955,-0.046203613,2.125,6.46875,6.015625
1695814301825,0.53466797,-0.5220337,-0.12628174,-18.765625,-0.640625,-15.40625
1695814301876,0.54467773,0.17376709,0.050231934,-34.15625,5.03125,-2.953125
1695814301917,0.35595703,0.25115967,0.06732178,-12.484375,9.671875,-6.765625
1695814301951,0.3774414,0.17913818,0.21990967,-4.0,16.46875,8.0
1695814301989,0.7092285,-0.17242432,0.23504639,7.671875,9.375,18.15625
1695814302026,1.4313965,-0.4727173,-0.06427002,14.265625,24.921875,-9.9375
1695814302064,1.5783691,0.011657715,0.27874756,-31.90625,11.75,-8.015625
1695814302113,1.4411621,-0.24835205,0.42889404,-19.0625,1.0625,-9.8125
1695814302150,1.1867676,-0.4656372,-0.2625122,7.484375,-29.21875,-19.046875
1695814302188,0.70874023,0.08709717,-0.6592407,2.1875,-26.9375,2.84375
1695814302227,1.2077637,0.61883545,-0.46124268,-2.984375,35.359375,43.09375
1695814302264,1.5786133,-0.44610596,-0.10626221,17.046875,10.5,12.28125
1695814302300,0.76000977,-0.25543213,-0.13677979,13.0625,-11.765625,-29.4375
1695814302351,0.6464844,0.2723999,0.124694824,-4.703125,2.890625,4.96875
1695814302389,0.49902344,0.14324951,0.07513428,21.421875,-11.375,36.703125
1695814302425,0.41479492,-0.26226807,-0.13653564,25.84375,11.234375,16.9375
1695814302464,0.51953125,-0.5808716,-0.073791504,15.09375,18.203125,-19.96875
1695814302501,0.77319336,-0.2564087,-0.015930176,14.671875,14.765625,-15.09375
1695814302539,1.5429688,0.07757568,0.1005249,35.609375,-3.046875,7.515625
1695814302601,1.8432617,-0.049865723,0.17108154,-6.546875,-20.65625,16.6875
1695814302625,1.1425781,-0.75738525,-0.08111572,6.625,-33.015625,1.421875
1695814302664,0.6870117,-0.39874268,-0.28375244,-5.859375,-19.828125,-28.109375
1695814302701,0.68652344,0.22039795,-0.34210205,33.578125,-25.046875,-27.09375
1695814302739,1.999939,0.91204834,0.12249756,-36.703125,5.578125,-12.703125
1695814302776,1.1494141,-0.09161377,0.022155762,-8.8125,15.734375,17.6875
1695814302825,1.0095215,-1.0115356,-0.15289307,-21.421875,-6.640625,2.953125
1695814302865,0.15576172,-0.12213135,-0.094055176,-12.671875,4.75,-14.15625
1695814302901,0.19995117,0.26190186,0.2723999,-36.15625,27.328125,1.21875
1695814302938,0.6188965,-0.06744385,0.16156006,-5.421875,3.65625,15.5625
1695814302979,0.828125,-0.22052002,-0.03277588,-6.265625,-3.15625,3.171875
1695814303027,1.0429688,0.062683105,0.11590576,-4.453125,21.578125,-7.703125
1695814303063,1.3012695,0.00970459,0.12664795,-20.734375,13.03125,-7.25
1695814303100,1.4287109,-0.41168213,0.28900146,-6.6875,9.875,-0.9375
1695814303138,1.1445312,-0.5232544,0.07733154,-20.765625,-15.96875,-28.109375
1695814303178,0.7331543,-0.10772705,-0.66290283,-15.15625,-28.015625,-9.375
1695814303213,1.3364258,0.46624756,-0.76812744,-4.59375,5.953125,21.0625
1695814303263,1.6547852,0.42303467,-0.043273926,-0.03125,12.71875,47.796875
1695814303300,1.1257324,-0.93756104,-0.06378174,19.640625,-7.03125,-27.484375
1695814303337,0.56030273,-0.44073486,-0.027893066,-32.890625,6.5,-24.28125
1695814303376,0.56469727,0.20550537,0.18743896,-17.390625,-9.65625,21.6875
1695814303415,0.4506836,0.18695068,-0.117492676,46.796875,-0.25,23.96875
1695814303451,0.4267578,0.093933105,-0.018859863,-14.96875,14.953125,6.21875
1695814303501,0.6328125,-0.3538208,0.13153076,25.734375,31.640625,-11.46875
1695814303539,1.5327148,-0.85040283,-0.2949829,42.265625,33.046875,3.875
1695814303576,1.5588379,-0.11065674,0.024841309,7.46875,8.03125,22.578125
1695814303613,1.3806152,-0.348938,-0.04888916,-1.578125,-14.4375,1.5625
1695814303651,1.2490234,-0.35284424,-0.40899658,22.03125,-20.609375,-3.15625
1695814303689,1.0078125,0.2399292,-0.48492432,42.109375,-19.515625,-16.609375
1695814303740,1.1586914,1.0140991,-0.0029907227,-36.3125,-5.484375,-23.171875
1695814303775,1.2868652,0.009216309,-0.08404541,20.109375,16.0625,16.484375
1695814303813,0.8989258,-0.77593994,-0.32696533,20.375,-16.28125,-3.703125
1695814303850,0.49731445,-0.25665283,-0.15704346,-21.125,2.171875,-9.5
1695814303891,0.59350586,0.17327881,0.01361084,-34.140625,10.40625,-0.359375
1695814303926,0.453125,0.16204834,-0.0010375977,-8.78125,3.9375,-8.609375
1695814304014,0.4248047,0.11248779,0.18182373,12.40625,-1.4375,9.140625
1695814304017,0.7468262,-0.17828369,0.12738037,13.015625,-1.140625,22.5625
1695814304051,1.4829102,-0.52716064,-0.20587158,0.125,3.140625,-11.890625
1695814304091,1.5874023,-0.04083252,0.2909546,-20.546875,-6.96875,-17.9375
1695814304151,1.4731445,-0.070129395,0.17132568,-8.5625,-19.34375,-22.375
1695814304165,0.8811035,-0.26446533,-0.5198364,9.796875,0.703125,-3.5625
1695814304216,0.72680664,0.17840576,-0.47906494,1.796875,-8.375,26.390625
1695814304251,1.3125,0.28411865,-0.3279419,-3.40625,13.484375,38.578125
1695814304300,1.4260254,-0.2805786,-0.15435791,10.828125,3.4375,-1.0625
1695814304325,0.86499023,-0.34576416,-0.078430176,-25.359375,-7.578125,-33.609375
1695814304376,0.6154785,0.094177246,-0.05206299,-10.0,0.59375,1.0625
1695814304402,0.40112305,0.3234253,0.06365967,0.8125,-12.171875,27.71875
1695814304451,0.28759766,-0.046447754,0.0770874,-3.359375,-9.125,22.65625
1695814304500,0.67041016,-0.5894165,-0.06793213,-0.640625,21.3125,-13.53125
1695814304526,1.0002441,-0.20904541,0.11663818,8.828125,12.4375,-11.796875
1695814304564,1.3857422,0.00579834,-0.050109863,41.65625,2.953125,3.734375
1695814304602,1.65625,-0.4336548,-0.0647583,4.546875,-12.515625,-4.0
1695814304638,1.4338379,-0.4397583,0.062927246,-0.9375,-37.25,0.21875
1695814304689,1.0446777,-3.0517578E-4,-0.42266846,27.921875,-12.796875,-6.046875
1695814304728,0.92529297,0.29119873,-0.23883057,3.328125,-13.09375,-7.84375
1695814304775,1.2236328,0.5717163,0.0048217773,-41.0,-9.1875,-23.765625
1695814304812,1.3747559,-0.2774048,-0.011047363,-9.53125,-8.34375,-6.578125
1695814304839,0.84350586,-0.6848755,-0.1651001,-13.671875,-22.34375,-5.46875
1695814304902,0.4440918,-0.0020141602,0.078308105,-28.34375,-6.609375,-6.390625
1695814304939,0.23754883,0.105407715,0.05682373,-4.234375,-2.65625,-12.53125
1695814304964,0.30810547,0.09173584,-0.0051879883,-16.71875,13.53125,-4.75
1695814305001,0.65844727,0.019958496,0.2831421,-4.4375,23.9375,14.78125
1695814305040,1.2019043,-0.22247314,0.31878662,18.75,19.46875,4.890625
1695814305078,1.6936035,-0.47149658,-0.0025024414,-15.84375,8.546875,-10.75
1695814305114,1.1640625,-0.18267822,0.40863037,-23.375,12.609375,2.328125
1695814305176,1.2075195,-0.19024658,-0.027893066,21.484375,-5.0,-14.890625
1695814305205,1.1567383,-0.116760254,-0.49493408,24.4375,-10.171875,2.640625
1695814305237,1.1716309,0.26800537,-0.42852783,-29.765625,21.5625,43.65625
1695814305276,1.1887207,-0.059143066,-0.35723877,-7.015625,13.875,28.09375
1695814305351,0.7836914,-0.8530884,-0.15997314,-12.546875,1.265625,-29.546875
1695814305353,0.8977051,0.0018920898,-0.011047363,-9.765625,-4.546875,-22.921875
1695814305402,1.03125,0.6066284,0.11468506,16.15625,-4.265625,25.375
1695814305451,0.28881836,0.112976074,0.0040893555,-0.8125,-13.515625,29.4375
1695814305489,0.24829102,-0.5864868,-0.14508057,11.875,7.234375,-5.890625
1695814305513,0.49438477,-0.4751587,0.027282715,-7.640625,10.109375,-15.359375
1695814305551,1.0012207,0.07318115,0.1720581,35.546875,-4.0625,6.109375
1695814305588,1.8803711,-0.035461426,-0.17633057,38.25,9.828125,-1.84375
1695814305638,1.4406738,-0.5725708,0.09588623,-7.96875,-1.65625,17.984375
1695814305679,1.4755859,-0.52789307,-0.12652588,-4.828125,-14.640625,12.6875
1695814305714,1.0612793,-0.047668457,-0.6734009,40.15625,-22.890625,-24.484375
1695814305750,1.1074219,0.38128662,0.0040893555,-30.78125,-12.578125,-42.96875
1695814305788,1.2438965,0.64715576,-0.13287354,-5.359375,17.578125,5.96875
1695814305840,1.1223145,-0.16192627,-0.09039307,2.1875,4.4375,17.4375
1695814305877,0.7297363,-0.5029907,-0.11798096,11.390625,-12.359375,-12.765625
1695814305913,0.61035156,-0.16705322,-0.12506104,-30.734375,-10.6875,1.875
1695814305990,0.46166992,0.038024902,0.023376465,-19.25,-4.15625,-11.640625
1695814305993,0.33569336,-0.07867432,0.09564209,-11.875,7.3125,-13.8125
1695814306051,0.5275879,0.047058105,0.23773193,1.28125,-0.1875,5.5625
1695814306090,0.9042969,-0.058654785,0.21844482,6.25,26.140625,16.21875
1695814306118,1.6791992,-0.41680908,0.028747559,-3.453125,13.203125,6.109375
1695814306151,1.439209,-0.29937744,0.12542725,-8.828125,6.265625,-8.40625
