# Sensor type: Respeck
# Activity type: Ascending stairs
# Activity subtype: Normal
# Subject id: s1862623
# Notes: 
timestamp,accel_x,accel_y,accel_z,gyro_x,gyro_y,gyro_z
1695813600985,1.3518066,0.32122803,-0.3201294,-7.875,-13.4375,-13.609375
1695813601025,1.279541,0.20892334,-0.41729736,-4.328125,14.109375,2.046875
1695813601063,0.94018555,-0.12677002,-0.5322876,-43.421875,-9.90625,6.578125
1695813601097,0.49267578,-0.20611572,-0.4541626,-32.609375,-0.375,-7.78125
1695813601134,0.65771484,0.16864014,-0.32354736,-14.359375,7.25,1.015625
1695813601184,1.5222168,0.49090576,-0.25958252,-14.4375,2.5,6.265625
1695813601222,0.98168945,0.034118652,-0.21343994,-10.40625,-21.796875,7.828125
1695813601260,0.5974121,-0.14337158,-0.23590088,-23.46875,-28.6875,1.59375
1695813601297,0.4963379,-0.017150879,-0.20684814,-23.0,-13.578125,-8.0625
1695813601334,0.6755371,0.15570068,-0.15631104,-17.3125,-1.515625,-4.09375
1695813601385,0.8371582,0.07611084,-0.06573486,-6.296875,3.796875,-2.578125
1695813601423,0.89819336,-0.07989502,-0.11529541,-2.671875,17.484375,-7.5625
1695813601460,1.2631836,-0.11456299,-0.33795166,3.0,14.1875,-6.140625
1695813601498,1.927002,0.06829834,-0.37213135,9.109375,-1.59375,15.375
1695813601534,1.2749023,0.15618896,-0.49249268,-6.15625,-13.796875,24.265625
1695813601573,0.84033203,0.3632202,-0.4031372,12.078125,-15.015625,7.828125
1695813601610,0.6652832,0.4015503,-0.18414307,8.59375,0.859375,-6.5625
1695813601660,0.80908203,0.1395874,-0.1843872,3.125,-6.59375,-3.546875
1695813601698,1.0258789,0.09661865,-0.144104,13.8125,0.390625,4.515625
1695813601735,0.9226074,-0.0095825195,-0.22491455,7.921875,-2.296875,2.3125
1695813601772,0.7272949,-0.10699463,-0.1350708,-2.921875,1.640625,-5.125
1695813601810,0.6159668,-7.9345703E-4,-0.113342285,-10.015625,13.28125,-6.015625
1695813601849,0.7060547,0.124694824,-0.16778564,2.84375,1.1875,3.75
1695813601899,1.0466309,0.32196045,-0.16778564,21.3125,0.265625,11.34375
1695813601938,1.3261719,0.009460449,-0.062561035,-9.609375,12.96875,3.578125
1695813601974,1.0893555,-0.18414307,-0.14190674,-18.921875,-11.046875,0.796875
1695813602010,0.9567871,0.07635498,-0.36090088,-22.28125,-13.328125,-1.75
1695813602049,1.0476074,0.44110107,-0.4553833,-2.234375,1.875,-4.71875
1695813602099,1.0615234,0.21502686,-0.29083252,-44.578125,1.328125,15.53125
1695813602136,0.6386719,-0.3411255,-0.5039673,-20.875,-7.109375,21.875
1695813602175,0.7463379,-0.17193604,-0.41363525,-27.515625,25.03125,-5.046875
1695813602212,1.2663574,0.093933105,-0.38702393,-32.578125,2.8125,0.3125
1695813602249,1.253418,0.41351318,-0.15655518,-25.59375,-7.765625,11.953125
1695813602286,0.7854004,0.2345581,-0.19171143,-26.515625,-12.828125,12.375
1695813602338,0.6557617,-0.22735596,-0.29229736,-19.0625,-3.765625,2.34375
1695813602374,0.82592773,-0.25421143,-0.26275635,-34.6875,-6.015625,-14.859375
1695813602410,0.7102051,0.10418701,-0.16241455,-33.390625,-4.453125,-7.125
1695813602449,0.6887207,0.11639404,-0.039611816,-26.21875,5.25,-0.6875
1695813602487,0.8937988,-0.18634033,-0.22515869,-5.703125,8.703125,-5.875
1695813602523,1.2819824,-0.20806885,-0.18463135,-17.78125,9.40625,-1.28125
1695813602574,1.4362793,-0.1663208,-0.222229,-13.59375,-8.734375,21.796875
1695813602610,1.0769043,-0.11187744,-0.32208252,-23.1875,-18.703125,26.75
1695813602650,1.1015625,-0.10748291,-0.71051025,1.015625,-24.515625,-7.171875
1695813602687,0.55322266,0.050231934,-0.612854,-11.484375,-8.671875,-10.90625
1695813602729,0.7722168,0.41693115,-0.20489502,-39.8125,6.78125,6.78125
1695813602760,1.265625,0.510437,-0.06744385,2.234375,1.703125,-2.0625
1695813602811,1.3327637,0.25164795,-0.3250122,4.40625,-23.765625,-14.96875
1695813602847,0.94799805,-0.093566895,-0.14678955,-20.171875,-15.171875,0.5625
1695813602886,0.79833984,-0.085754395,-0.065979004,-19.453125,-25.34375,-6.25
1695813602923,0.8774414,-0.112854004,-0.11505127,-30.03125,-19.484375,-23.84375
1695813602962,0.75097656,-0.17242432,-0.120910645,-31.140625,-12.390625,-26.71875
1695813603003,0.79467773,-0.031799316,0.01751709,-16.234375,-0.875,-14.3125
1695813603048,0.71655273,-0.026916504,0.03314209,-31.28125,-11.9375,-6.328125
1695813603086,0.41577148,0.0119018555,-0.043518066,-16.015625,-2.390625,-9.71875
1695813603123,0.5415039,-0.23590088,0.27581787,-26.09375,33.984375,8.546875
1695813603160,1.0012207,-0.5442505,0.031677246,-17.453125,19.421875,22.828125
1695813603197,1.338623,-0.2859497,0.20233154,-43.265625,39.75,17.59375
1695813603288,0.9719238,-0.0022583008,-0.14727783,23.046875,19.625,19.984375
1695813603291,1.234375,-0.06549072,-0.2420044,13.75,18.6875,-3.84375
1695813603324,1.6379395,0.29144287,-0.6682739,6.796875,5.59375,14.9375
1695813603362,1.1118164,0.0038452148,-0.75006104,-3.359375,-13.875,22.28125
1695813603401,0.8833008,0.4454956,-0.81500244,-21.3125,1.4375,11.0625
1695813603436,1.0305176,0.027526855,-0.6021118,-26.015625,5.65625,12.578125
1695813603473,0.9445801,-0.39190674,-0.53204346,-37.015625,2.4375,9.734375
1695813603524,0.7507324,0.11126709,-0.46221924,-25.625,-2.046875,17.046875
1695813603561,0.9355469,0.3414917,-0.29107666,-20.375,4.9375,16.109375
1695813603598,1.0996094,0.0028686523,-0.31280518,-21.40625,2.5625,8.421875
1695813603636,0.8605957,-0.011291504,-0.15802002,-30.640625,-10.796875,8.34375
1695813603674,0.6640625,0.050476074,-0.29986572,-14.078125,-11.890625,5.0
1695813603713,0.7302246,0.13128662,-0.28497314,-12.703125,-2.1875,2.671875
1695813603761,0.8083496,0.015563965,-0.14361572,-11.546875,4.390625,-0.34375
1695813603811,0.9055176,-0.02911377,-0.28546143,-6.96875,0.8125,-3.75
1695813603836,1.0136719,-0.05279541,-0.3394165,-4.578125,2.734375,-2.90625
1695813603874,1.0849609,-0.04034424,-0.30670166,-9.78125,3.625,10.625
1695813603911,1.3256836,0.12249756,-0.29644775,1.03125,-18.578125,16.546875
1695813603949,1.109375,0.1083374,-0.6382446,4.25,-6.640625,11.0625
1695813603999,0.80981445,0.23822021,-0.3574829,0.015625,-16.171875,15.28125
1695813604036,0.8203125,0.44891357,-0.15875244,11.171875,-14.328125,12.25
1695813604074,0.9489746,0.2526245,-0.18609619,-18.640625,-20.640625,-5.78125
1695813604112,0.9086914,-0.014709473,-0.2756958,5.96875,-6.9375,-12.234375
1695813604149,0.8569336,0.13079834,-0.19488525,2.109375,6.234375,0.734375
1695813604187,0.9938965,0.11029053,-0.0947876,-0.296875,-1.859375,-0.421875
1695813604237,0.79003906,0.0770874,-0.11578369,-4.25,-10.1875,-8.265625
1695813604274,0.73583984,0.11956787,-0.081604004,-3.8125,1.5,0.671875
1695813604311,0.9460449,0.03729248,-0.12335205,1.8125,-4.890625,4.25
1695813604349,0.8859863,-0.032287598,-0.0881958,-15.765625,-5.6875,-2.125
1695813604386,0.6936035,0.089538574,-0.051818848,-17.0625,9.1875,-1.140625
1695813604423,0.86206055,0.14715576,-0.034240723,5.671875,2.8125,10.0625
1695813604474,1.4221191,0.020446777,-0.08282471,6.65625,14.484375,-6.703125
1695813604513,1.3798828,0.00579834,-0.36260986,-14.171875,-3.03125,-20.28125
1695813604547,1.1206055,0.199646,-0.473938,15.6875,1.875,-5.46875
1695813604586,1.2141113,0.3012085,-0.24249268,-47.734375,2.796875,2.78125
1695813604640,0.7092285,-0.1182251,-0.3880005,-20.3125,-14.4375,-5.265625
1695813604660,0.5749512,0.062683105,-0.31939697,-22.28125,17.765625,2.765625
1695813604711,1.0200195,0.27679443,-0.12921143,-14.140625,17.796875,14.0625
1695813604748,1.1225586,0.08758545,-0.13555908,-3.9375,-0.390625,-1.609375
1695813604786,0.7885742,-0.11065674,-0.2859497,-9.828125,-7.265625,-6.96875
1695813604824,0.62597656,0.06414795,-0.14678955,-7.078125,-10.09375,0.65625
1695813604862,0.7297363,0.10687256,-0.1375122,3.265625,1.265625,-1.109375
1695813604899,0.91186523,0.011413574,-0.15264893,0.484375,1.5,-9.46875
1695813604948,0.92041016,-0.074279785,-0.16998291,4.34375,5.65625,-5.8125
1695813604986,0.9604492,-0.066223145,-0.18878174,5.09375,15.3125,-4.546875
1695813605023,1.418457,-0.027404785,-0.25421143,2.15625,15.40625,-8.671875
1695813605060,1.5344238,0.027282715,-0.2949829,7.609375,-12.296875,11.59375
1695813605099,1.2658691,0.0211792,-0.6099243,13.765625,-13.34375,17.125
1695813605143,0.9370117,0.5297241,-0.30621338,6.625,-9.046875,14.90625
1695813605185,0.7644043,0.5336304,-0.081848145,3.09375,-5.0,13.46875
1695813605223,0.7416992,0.01361084,-0.24957275,10.71875,-1.078125,6.6875
1695813605260,0.8684082,-0.22979736,-0.28082275,16.890625,0.140625,-2.125
1695813605298,0.8017578,0.15032959,-0.20074463,3.875,3.71875,-10.171875
1695813605335,0.90063477,0.2345581,-0.09234619,5.5625,-2.90625,-3.15625
1695813605373,0.8059082,0.08880615,-0.10723877,6.828125,-3.875,-0.765625
1695813605423,0.69873047,-0.010803223,-0.11480713,5.828125,-1.234375,0.859375
1695813605462,0.8100586,0.073913574,-0.10406494,4.765625,-3.1875,2.40625
1695813605502,0.9008789,0.090026855,-0.09991455,2.140625,3.53125,2.015625
1695813605537,1.0234375,0.116882324,-0.009094238,-1.234375,8.78125,0.71875
1695813605574,1.25,0.1749878,-0.026672363,2.875,-2.828125,1.015625
1695813605612,1.3959961,0.12298584,-0.19195557,3.0,-1.171875,-6.53125
1695813605660,1.3012695,0.14276123,-0.4031372,0.28125,-1.203125,-17.09375
1695813605699,1.1367188,0.117614746,-0.48468018,-31.171875,12.3125,0.828125
1695813605737,0.7854004,0.01751709,-0.3484497,-25.875,-15.921875,-4.0
1695813605774,0.5151367,-0.23468018,-0.33428955,-20.71875,6.90625,-9.109375
1695813605810,0.7792969,0.1071167,-0.2564087,-12.1875,10.90625,-6.125
1695813605849,1.2331543,0.3324585,-0.10845947,-1.765625,-0.0625,3.703125
1695813605898,0.90185547,0.03778076,-0.14361572,-5.5,-4.078125,2.234375
1695813605935,0.6320801,-0.23760986,-0.2720337,-2.4375,-23.5625,1.78125
1695813605974,0.56274414,-0.02154541,-0.17315674,-8.640625,3.078125,0.84375
1695813606012,0.80688477,0.13739014,-0.13555908,1.796875,8.59375,-2.1875
1695813606048,1.0334473,0.11468506,-0.078430176,-0.34375,5.59375,-0.953125
1695813606085,0.9584961,-0.097229004,-0.17999268,1.109375,8.65625,-0.328125
1695813606135,1.1865234,-0.237854,-0.28399658,10.421875,13.453125,-11.953125
1695813606174,1.7661133,-0.054016113,-0.28277588,5.140625,1.890625,-1.171875
1695813606211,1.3227539,0.035583496,-0.5532837,11.90625,-16.921875,23.140625
1695813606249,0.84814453,0.30975342,-0.47686768,-0.171875,-19.28125,13.703125
1695813606287,0.842041,0.5817261,-0.19390869,9.484375,-0.09375,7.484375
1695813606337,0.83447266,0.16864014,-0.15484619,0.25,-5.09375,5.703125
1695813606374,0.80859375,-0.23492432,-0.2588501,3.6875,-15.171875,-4.21875
1695813606412,0.7907715,0.0048217773,-0.21002197,-0.515625,-0.984375,-7.90625
1695813606449,0.89086914,0.27557373,-0.08795166,-4.984375,-7.546875,-0.546875
1695813606487,0.78466797,0.05633545,-0.10284424,-2.0625,0.84375,1.109375
1695813606524,0.61743164,-0.061584473,-0.09552002,-4.3125,8.21875,-0.46875
1695813606576,0.73535156,0.008239746,-0.050354004,14.0625,-0.625,2.84375
1695813606612,1.0412598,0.17840576,-0.18927002,2.515625,6.28125,7.984375
1695813606650,1.0373535,0.062927246,-0.043762207,-6.515625,5.609375,4.359375
1695813606686,1.1352539,-0.07476807,-0.10675049,-9.328125,7.765625,-3.4375
1695813606723,1.4082031,0.034362793,-0.2559204,-4.890625,-3.203125,-7.96875
1695813606761,1.4040527,0.32977295,-0.4241333,11.765625,-8.015625,-14.796875
1695813606850,1.354248,0.06976318,-0.32183838,-57.5625,2.59375,9.28125
1695813606852,0.5449219,-0.29766846,-0.44244385,-33.28125,-21.640625,7.84375
1695813606887,0.28759766,-0.06915283,-0.39141846,-27.96875,17.71875,-12.140625
1695813606924,0.8222656,0.20111084,-0.18292236,-11.296875,30.296875,0.578125
1695813606962,1.4384766,0.14569092,-0.17828369,-9.84375,5.125,9.59375
1695813606998,0.82421875,0.01751709,-0.20269775,-14.0625,-11.90625,8.109375
1695813607048,0.5024414,1.8310547E-4,-0.22808838,-10.046875,-6.3125,10.734375
1695813607085,0.5859375,-0.07965088,-0.21588135,-8.59375,7.625,4.6875
1695813607123,0.8300781,-0.069885254,-0.14874268,-18.03125,8.25,-2.578125
1695813607162,0.8955078,-0.0010375977,-0.14141846,-18.1875,5.5625,-0.890625
1695813607199,0.8339844,-0.09234619,-0.24810791,-7.03125,4.8125,0.421875
1695813607236,1.1181641,-0.13922119,-0.18292236,-23.28125,20.453125,-6.546875
1695813607336,1.4941406,-0.23370361,-0.36505127,-7.625,-4.421875,0.765625
1695813607339,1.7055664,-0.0064086914,-0.40045166,-11.671875,-13.8125,14.359375
1695813607361,1.2426758,0.1281128,-0.5354614,-11.34375,-27.546875,23.375
1695813607398,1.0571289,0.15716553,-0.48443604,4.046875,-29.03125,25.5625
1695813607437,0.67822266,0.4081421,-0.18414307,-14.9375,-16.765625,13.234375
1695813607475,0.6411133,0.14715576,-0.23760986,-14.5625,-13.71875,3.234375
1695813607523,0.7351074,0.016052246,-0.13165283,-6.015625,-1.171875,-2.453125
1695813607561,1.0061035,0.12884521,-0.18487549,6.75,-9.6875,0.0625
1695813607600,0.9992676,0.1852417,-0.101379395,-0.296875,-9.1875,-1.34375
1695813607636,0.76464844,0.06756592,-0.032043457,-10.625,-3.1875,4.640625
1695813607680,0.71728516,-0.09698486,-0.06719971,-12.09375,-4.90625,3.421875
1695813607712,0.8618164,-0.061340332,-0.081604004,-6.375,-2.671875,-9.40625
1695813607762,0.8911133,0.0602417,-0.097229004,-17.65625,-4.296875,-7.359375
1695813607799,0.6640625,0.026794434,0.03289795,-26.6875,3.203125,1.59375
1695813607837,0.6645508,0.010437012,0.02923584,-28.453125,16.671875,13.375
1695813607875,0.84765625,-0.078430176,0.06707764,-0.875,4.203125,12.46875
1695813607912,1.6650391,0.008483887,0.09515381,-25.4375,31.5,-0.703125
1695813607948,1.6108398,-0.3045044,-0.074035645,-1.96875,-7.25,-7.859375
1695813607999,1.3847656,-0.15704346,-0.51446533,-29.109375,-0.453125,-44.90625
1695813608044,1.0087891,0.5140991,-0.55010986,-12.875,-30.8125,1.671875
1695813608073,1.1806641,0.2826538,-0.5108032,-62.421875,-21.375,17.84375
1695813608114,0.55444336,-0.07867432,-0.59503174,-10.734375,-9.984375,-19.15625
1695813608147,0.71533203,-0.20489502,-0.43927002,-20.875,15.703125,-17.015625
1695813608185,1.2155762,-0.10675049,-0.26348877,-35.390625,2.140625,8.1875
1695813608236,0.9592285,-0.003479004,-0.043273926,-38.40625,-12.90625,-5.125
1695813608274,0.70581055,0.0016479492,-0.11846924,-21.453125,-19.546875,-8.53125
1695813608311,0.71899414,-0.08917236,-0.13287354,-28.078125,-11.46875,-1.265625
1695813608349,0.69311523,-0.13922119,-0.16949463,-24.796875,4.140625,-0.671875
1695813608386,0.873291,-0.16217041,-0.11993408,-32.875,5.109375,-3.546875
1695813608424,0.8664551,-0.105773926,-0.10308838,-27.421875,-4.234375,-1.15625
1695813608474,0.7246094,-0.06866455,-0.066467285,-24.875,3.390625,7.125
1695813608511,0.7199707,-0.12384033,-0.089416504,-6.84375,7.40625,2.203125
1695813608548,0.99072266,-0.2883911,-0.07550049,-11.921875,18.578125,2.09375
1695813608586,1.2670898,-0.36016846,-0.05206299,-22.90625,26.90625,9.140625
1695813608624,1.4282227,-0.3591919,-0.2588501,-10.453125,-7.1875,8.921875
1695813608660,1.4123535,-0.050598145,-0.29888916,-6.671875,-7.90625,15.484375
1695813608710,1.420166,0.12176514,-0.41412354,-6.390625,-11.265625,14.09375
1695813608748,1.0126953,0.0836792,-0.45880127,-8.546875,-23.234375,5.765625
1695813608787,0.7128906,0.18719482,-0.3567505,-5.171875,-9.828125,6.546875
1695813608826,0.779541,0.36444092,-0.21002197,-25.71875,3.5,2.671875
1695813608861,1.0026855,0.09979248,-0.16436768,-6.640625,-0.1875,-0.71875
1695813608900,1.0566406,-0.13604736,-0.30059814,-3.703125,-6.796875,-0.703125
1695813608949,0.8039551,0.051696777,-0.12335205,-14.71875,-0.921875,2.6875
1695813608986,0.79956055,0.1281128,-0.11993408,-14.28125,-1.5,5.53125
1695813609022,0.97631836,0.06536865,-0.101379395,-11.15625,1.0625,2.953125
1695813609061,0.91748047,-0.06549072,-0.11456299,-8.75,-2.265625,1.234375
1695813609111,0.83691406,-0.041809082,-0.10333252,-14.296875,-1.9375,5.8125
1695813609135,0.7780762,0.062927246,-0.05718994,-17.8125,4.015625,9.546875
1695813609193,0.7956543,-0.007873535,-0.0068969727,-9.921875,4.984375,11.046875
1695813609223,1.0383301,-0.07550049,-0.1116333,-8.671875,1.828125,3.609375
1695813609261,1.295166,-0.031799316,-0.0947876,-16.875,8.90625,-9.171875
1695813609299,1.2067871,0.13812256,-0.1428833,-9.078125,-0.859375,-11.328125
1695813609337,1.4279785,0.25701904,-0.35968018,-13.6875,7.578125,3.796875
1695813609374,1.1535645,0.10028076,-0.2883911,-42.640625,-7.421875,9.9375
1695813609425,0.4567871,-0.4199829,-0.40704346,-25.5,3.671875,-2.703125
1695813609460,0.4675293,-0.121154785,-0.22662354,-31.171875,18.546875,-9.453125
1695813609499,1.0993652,0.20062256,-0.15386963,-14.53125,14.84375,9.84375
1695813609538,1.3918457,0.08807373,-0.13189697,-23.15625,3.546875,4.8125
1695813609575,0.8190918,-0.0947876,-0.15802002,-26.375,-6.78125,4.890625
1695813609611,0.54345703,-0.051086426,-0.19439697,-18.65625,-10.5625,10.65625
1695813609660,0.6586914,-0.03326416,-0.12310791,-19.703125,13.46875,4.203125
1695813609703,0.97802734,6.713867E-4,-0.12896729,-14.921875,9.953125,-4.5625
1695813609738,0.94140625,-0.024475098,-0.07647705,-20.65625,10.140625,-2.0625
1695813609774,0.8737793,-0.15899658,-0.17047119,-13.078125,8.71875,-1.875
1695813609810,1.1123047,-0.2642212,-0.24005127,-14.640625,8.765625,-9.15625
1695813609848,1.6103516,-0.16656494,-0.2456665,-7.9375,3.859375,-5.703125
1695813609898,1.3522949,0.013366699,-0.29473877,-1.015625,-14.75,27.15625
1695813609936,1.1398926,-0.07110596,-0.6939087,7.046875,-19.03125,14.015625
1695813609974,0.96728516,0.2682495,-0.36846924,-1.578125,-6.34375,7.796875
1695813610011,0.71606445,0.35028076,-0.101379395,-29.1875,10.21875,16.09375
1695813610049,0.6821289,-0.011047363,-0.25128174,-3.578125,-11.265625,-0.296875
1695813610087,1.045166,-0.047668457,-0.15386963,-1.515625,-2.9375,-2.046875
1695813610139,1.1350098,0.1395874,-0.054260254,-10.15625,-15.484375,8.03125
1695813610175,0.79345703,0.06976318,-0.08013916,-1.21875,-11.6875,0.296875
1695813610211,0.6230469,-0.1795044,-0.18389893,-11.75,8.03125,-0.046875
1695813610248,0.6364746,-0.13433838,-0.059631348,-12.484375,-5.0,5.25
1695813610288,0.8022461,0.043884277,-0.08868408,-4.484375,6.6875,1.375
1695813610336,0.81274414,-0.03643799,-0.12652588,-17.203125,11.46875,-4.546875
1695813610373,0.8691406,0.035095215,-0.0095825195,-13.484375,9.703125,10.703125
1695813610409,1.1708984,0.20721436,0.0211792,-6.5625,12.75,14.484375
1695813610447,1.4147949,-0.036193848,-0.054748535,-1.953125,10.875,1.53125
1695813610487,1.4050293,-0.24005127,-0.13995361,-33.546875,-2.09375,-6.859375
1695813610523,1.1157227,-0.09991455,-0.2769165,-29.203125,-13.015625,-5.28125
1695813610574,1.1413574,0.38031006,-0.70562744,-15.46875,-8.5625,11.421875
1695813610610,1.0634766,0.16693115,-0.60235596,-41.546875,-9.875,-3.65625
1695813610648,0.6057129,-0.29229736,-0.54400635,-47.796875,18.640625,-12.34375
1695813610685,0.765625,-0.35528564,-0.37872314,-23.40625,1.734375,-22.75
1695813610725,1.0249023,0.027038574,-0.2930298,-24.84375,-11.96875,2.90625
1695813610760,0.92822266,0.33465576,-0.113098145,-24.015625,-8.125,6.234375
1695813610810,0.71240234,-0.18902588,-0.28326416,-25.890625,-8.015625,-2.109375
1695813610849,0.6479492,-0.6152954,-0.2810669,-40.984375,1.078125,-9.65625
1695813610886,0.7949219,-0.057678223,-0.17559814,-38.359375,-5.703125,1.640625
1695813610925,0.94433594,0.21209717,-0.11431885,-30.078125,-3.625,3.734375
1695813610962,0.85668945,-0.028625488,-0.08892822,-24.265625,-7.640625,-0.09375
1695813611012,0.68969727,-0.302063,-0.15386963,-19.28125,-6.890625,7.796875
1695813611048,0.6828613,-0.30670166,-0.053527832,-23.40625,-2.4375,0.015625
1695813611085,0.84106445,-0.20684814,-0.058654785,-27.078125,-4.859375,-2.6875
1695813611125,0.92456055,-0.20098877,-0.05718994,-25.078125,0.5,9.25
1695813611161,1.0786133,-0.27838135,-0.028381348,-29.234375,10.6875,15.6875
1695813611199,1.2382812,-0.47979736,-0.06768799,-7.953125,5.265625,10.390625
1695813611243,1.5705566,-0.41656494,-0.0647583,-16.515625,13.15625,5.015625
1695813611289,1.4465332,-0.21051025,-0.20318604,-10.0,-13.546875,22.703125
1695813611325,1.5646973,0.006286621,-0.54034424,21.71875,-41.3125,3.578125
1695813611361,1.0703125,0.2670288,-0.44659424,-19.765625,-10.28125,0.625
1695813611399,0.6032715,0.27313232,-0.30377197,-44.03125,-8.6875,11.921875
1695813611436,0.640625,0.43695068,-0.18267822,-5.921875,17.375,7.859375
1695813611477,1.0649414,0.14202881,-0.18536377,-16.609375,-3.0,5.359375
1695813611562,1.1323242,-0.12921143,-0.2588501,-20.203125,7.71875,7.03125
1695813611564,0.6501465,-0.04473877,-0.23370361,-28.5,-15.65625,-4.234375
1695813611598,0.58203125,0.089782715,-0.069885254,-16.9375,7.59375,7.234375
1695813611636,0.9296875,0.15203857,-0.07183838,-7.8125,9.03125,5.109375
1695813611673,1.0644531,0.04949951,-0.038879395,-6.078125,-2.71875,4.1875
1695813611711,0.84155273,-0.06329346,-0.07330322,-11.875,-12.921875,13.5
1695813611761,0.6833496,-0.062316895,-0.14605713,-9.015625,2.703125,7.640625
1695813611813,0.79345703,0.074645996,-0.06719971,-11.984375,20.15625,4.578125
1695813611837,1.0419922,0.12591553,-0.020080566,-0.28125,12.8125,10.71875
1695813611874,1.1608887,0.041931152,-0.1026001,-6.578125,8.640625,11.21875
1695813611912,1.2260742,-0.08892822,-0.18048096,-13.84375,13.171875,1.328125
1695813611948,1.2004395,0.11175537,-0.15631104,-10.671875,-3.25,-11.4375
1695813611998,1.546875,0.23602295,-0.3723755,0.65625,8.78125,-6.421875
1695813612037,1.1943359,0.06781006,-0.2942505,-44.859375,-10.453125,6.3125
1695813612076,0.501709,-0.07525635,-0.37921143,-29.15625,-10.921875,9.125
1695813612111,0.44921875,-0.10723877,-0.3513794,-21.65625,24.921875,-5.078125
1695813612164,0.9638672,0.015075684,-0.30499268,-12.546875,23.84375,-6.046875
1695813612184,1.2949219,0.13861084,-0.20220947,-25.609375,4.4375,3.625
1695813612236,0.88549805,0.17279053,-0.1026001,-15.453125,-9.9375,11.015625
1695813612274,0.61694336,-0.0335083,-0.20391846,-7.390625,-8.0625,9.453125
1695813612313,0.6933594,-0.17608643,-0.26593018,-15.84375,7.0625,-7.203125
1695813612348,0.90893555,-0.074279785,-0.15093994,-19.59375,6.953125,-7.203125
1695813612386,0.9797363,0.08880615,-0.1182251,-17.28125,-3.109375,-1.40625
1695813612427,0.8444824,0.008483887,-0.18878174,1.015625,-1.296875,-0.515625
1695813612474,1.1142578,-0.18243408,-0.36212158,-0.5,6.84375,-4.640625
1695813612524,1.4135742,-0.04156494,-0.26470947,5.984375,-1.234375,-8.328125
1695813612548,1.298584,0.02532959,-0.4290161,8.6875,-9.109375,9.171875
1695813612587,1.4406738,0.18597412,-0.4505005,13.625,-14.125,6.703125
1695813612624,0.96484375,0.28094482,-0.20880127,0.875,-12.953125,0.78125
1695813612661,0.6538086,0.15008545,-0.18145752,-5.140625,-7.890625,9.15625
1695813612713,0.60791016,0.105895996,-0.15460205,0.4375,-15.171875,2.28125
1695813612749,0.89624023,-0.019104004,-0.17022705,17.359375,-3.34375,-5.390625
1695813612786,1.0612793,0.06854248,-0.15802002,5.921875,-5.5,-6.25
1695813612823,0.73828125,0.046813965,-0.062561035,-5.546875,-8.0625,3.8125
1695813612862,0.5571289,0.016052246,-0.042297363,7.609375,-0.921875,4.796875
1695813612897,0.72387695,0.06878662,0.022399902,8.46875,5.234375,5.125
1695813612948,0.94311523,0.026794434,-0.13140869,13.375,9.046875,2.453125
1695813612985,1.0183105,-0.018859863,-0.09698486,3.796875,16.34375,-0.328125
1695813613024,1.0734863,0.040222168,-0.042053223,9.4375,3.6875,-0.125
1695813613061,1.3232422,0.093688965,-0.097473145,-5.078125,16.203125,-2.796875
1695813613099,1.3356934,-0.012268066,-0.18292236,-6.8125,-3.046875,-10.96875
1695813613137,1.2275391,0.16131592,-0.36016846,15.328125,-16.046875,-12.78125
1695813613186,1.4172363,0.15863037,-0.31085205,-25.390625,6.3125,6.671875
1695813613223,0.72314453,-0.124816895,-0.3430786,-20.453125,-28.109375,-3.59375
1695813613261,0.33544922,-0.26348877,-0.5462036,-5.65625,21.4375,-19.46875
1695813613299,0.79174805,0.15081787,-0.12017822,-17.890625,31.53125,3.109375
1695813613336,1.3032227,0.09442139,-0.1795044,6.375,4.640625,7.5
1695813613375,0.9645996,-0.078186035,-0.24371338,-9.921875,-8.03125,-3.46875
1695813613425,0.53637695,0.035339355,-0.12042236,-10.640625,-8.875,9.8125
1695813613460,0.5124512,-0.04937744,-0.22393799,5.546875,13.34375,7.921875
1695813613498,0.7932129,-0.13018799,-0.2625122,-3.84375,16.90625,-3.84375
1695813613537,0.97753906,-0.035217285,-0.09820557,0.640625,12.015625,-4.09375
1695813613574,1.0107422,-3.0517578E-4,-0.22711182,-4.90625,5.15625,-1.265625
1695813613610,0.939209,-0.13043213,-0.3123169,2.765625,4.734375,-1.328125
1695813613660,1.5187988,-0.090148926,-0.40826416,4.171875,8.03125,-9.8125
1695813613699,1.6015625,-0.15240479,-0.40167236,5.734375,-21.828125,10.890625
1695813613739,1.456543,0.089782715,-0.56622314,5.453125,-27.171875,9.71875
1695813613774,0.85375977,0.3475952,-0.3513794,-4.09375,-10.9375,4.03125
1695813613813,0.5354004,0.27508545,-0.23468018,-3.515625,-9.609375,14.25
1695813613847,0.6765137,0.215271,-0.047912598,2.265625,-4.90625,5.0
1695813613898,1.0583496,-0.050598145,-0.117492676,7.3125,-13.921875,-8.15625
1695813613938,0.9946289,-0.09918213,-0.25836182,4.296875,-13.75,-11.125
1695813613976,0.54418945,0.09564209,-0.11651611,5.5625,-9.984375,-4.234375
1695813614012,0.48706055,0.09613037,-0.08453369,11.890625,-3.484375,-3.421875
1695813614049,0.7766113,0.04534912,-0.012268066,10.8125,13.1875,0.53125
1695813614091,0.9941406,0.082458496,-0.10675049,2.953125,7.25,8.015625
1695813614135,0.89624023,-0.10040283,-0.105529785,7.96875,-4.4375,3.140625
1695813614178,1.1452637,0.054138184,-0.11480713,-5.84375,29.09375,0.671875
1695813614210,1.3789062,0.015319824,-0.065979004,-4.484375,5.921875,1.484375
1695813614248,1.3378906,0.06365967,-0.23345947,4.734375,-4.5625,-10.640625
1695813614285,1.4726562,0.25750732,-0.45635986,15.671875,2.921875,-6.40625
1695813614326,1.2314453,-0.06793213,-0.24859619,-46.984375,-13.1875,4.703125
1695813614373,0.51293945,-0.2781372,-0.50616455,-17.65625,-22.09375,-12.609375
1695813614411,0.5175781,0.03338623,-0.3814087,-10.75,26.28125,-18.953125
1695813614448,1.0461426,0.13079834,-0.07647705,-7.0625,17.625,14.4375
1695813614489,1.0839844,-0.08843994,-0.2354126,-5.5625,-8.171875,3.296875
1695813614529,0.6503906,-0.09527588,-0.20587158,-10.9375,-7.265625,-7.640625
1695813614573,0.47216797,0.086120605,-0.10870361,-6.0,1.5625,9.359375
1695813614618,0.6411133,-0.024230957,-0.1921997,-7.15625,13.1875,7.765625
1695813614648,0.8378906,-0.09527588,-0.15899658,0.34375,17.828125,-2.6875
1695813614687,1.0026855,-0.027160645,-0.20367432,-6.890625,20.40625,3.515625
1695813614724,1.0869141,-0.13458252,-0.286438,-1.671875,16.375,2.453125
1695813614761,1.3806152,-0.15264893,-0.45025635,5.046875,4.703125,-8.328125
1695813614810,1.5380859,-0.05230713,-0.30474854,-12.40625,0.953125,2.8125
1695813614848,1.1474609,-0.16851807,-0.75201416,10.984375,-15.1875,14.453125
1695813614886,1.229248,0.465271,-0.46954346,-4.265625,-10.765625,2.828125
1695813614923,0.6586914,0.39227295,-0.1951294,-1.703125,-8.5,14.71875
1695813614961,0.5739746,0.0368042,-0.25787354,1.9375,-7.984375,13.40625
1695813614998,0.767334,-0.049621582,-0.23077393,40.21875,-1.875,-11.296875
1695813615088,1.1240234,0.11004639,-0.27349854,6.640625,-4.390625,-7.328125
1695813615091,0.80444336,0.09466553,-0.16729736,7.75,-9.421875,-3.3125
1695813615124,0.50683594,-0.03741455,-0.20855713,16.078125,-6.25,-0.484375
1695813615161,0.6750488,0.039978027,-0.07989502,5.6875,5.5625,4.046875
1695813615198,0.904541,0.06951904,-0.1609497,18.46875,4.078125,6.984375
1695813615237,0.9711914,0.049743652,-0.16339111,5.984375,10.03125,5.953125
1695813615287,1.0217285,-0.04498291,-0.2456665,15.234375,-0.375,0.75
1695813615324,1.3076172,0.17010498,-0.19830322,-7.859375,-0.234375,-8.140625
1695813615362,1.3991699,-0.016906738,-0.1807251,-4.96875,4.34375,-6.96875
1695813615399,1.1618652,0.0138549805,-0.44000244,12.03125,-20.75,-13.578125
1695813615437,1.3950195,0.3612671,-0.5042114,-21.546875,3.84375,-10.1875
1695813615478,0.8515625,-0.17608643,-0.2966919,-40.578125,-14.1875,10.828125
1695813615561,0.3713379,-0.35723877,-0.54278564,-23.265625,0.921875,-10.484375
1695813615563,0.592041,0.09124756,-0.20269775,-20.4375,19.390625,-11.671875
1695813615598,1.1328125,0.14544678,-0.17779541,-14.625,9.6875,6.53125
1695813615637,1.1845703,0.034118652,-0.19000244,-22.875,0.796875,5.5
1695813615674,0.6376953,-0.058654785,-0.19976807,-28.875,-9.609375,15.671875
1695813615711,0.4741211,-0.18267822,-0.20074463,-20.84375,-3.671875,11.015625
1695813615761,0.63305664,-0.1272583,-0.21539307,-18.65625,7.203125,-3.734375
1695813615801,0.94384766,0.007019043,-0.17510986,-20.03125,4.140625,-4.078125
1695813615836,0.9277344,-0.024230957,-0.17706299,-17.109375,-2.890625,1.640625
1695813615877,0.78222656,-0.09576416,-0.16851807,-20.640625,1.3125,6.234375
1695813615911,0.9338379,-0.24468994,-0.09527588,-10.71875,17.875,2.859375
1695813615949,1.3642578,-0.4307251,-0.33135986,-3.390625,7.703125,5.84375
1695813615999,1.7683105,-0.101867676,-0.3381958,-22.6875,8.34375,16.328125
1695813616037,1.0629883,0.03387451,-0.708313,-11.453125,-27.703125,26.546875
1695813616074,1.0131836,-0.013000488,-0.61138916,-3.484375,-7.5,10.8125
1695813616110,0.8605957,0.26068115,-0.2642212,-30.9375,6.125,5.046875
1695813616147,0.79907227,-0.036193848,-0.2925415,-26.953125,-14.828125,9.921875
1695813616189,0.7145996,-0.17706299,-0.19537354,-19.859375,-2.09375,-8.578125
1695813616247,0.96118164,0.11224365,-0.27960205,-12.234375,-11.625,-6.59375
1695813616282,1.0163574,0.16033936,-0.16583252,-21.484375,-13.953125,-4.890625
1695813616310,0.83374023,-0.08135986,-0.13018799,-29.96875,-0.125,1.078125
1695813616346,0.7980957,-0.317688,-0.15753174,-39.609375,-12.953125,8.40625
1695813616384,0.7998047,-0.0960083,-0.113098145,-28.75,-9.734375,2.046875
1695813616423,0.8186035,0.0045776367,-0.07867432,-18.546875,4.734375,4.453125
1695813616487,0.94750977,-0.18682861,-0.14361572,-35.453125,-8.640625,6.578125
1695813616513,1.072998,-0.16339111,-0.11016846,-50.9375,-22.375,3.90625
1695813616561,1.0065918,-0.06842041,-0.077697754,-69.703125,-31.359375,-3.671875
1695813616586,0.5944824,-0.113098145,-0.09576416,-59.75,-24.703125,-14.453125
1695813616626,0.72924805,-0.2432251,-0.4319458,-37.59375,4.515625,-6.484375
1695813616662,1.0864258,0.18426514,-0.38165283,-37.234375,2.515625,3.625
1695813616711,1.3347168,-0.24127197,-0.2522583,-20.96875,20.875,3.40625
1695813616747,1.2211914,-0.17755127,-0.117004395,-25.796875,10.03125,-1.328125
1695813616786,1.0461426,-0.1116333,-0.020568848,-36.34375,-3.046875,9.96875
1695813616827,0.79541016,-0.29766846,-0.27764893,-45.421875,-2.5625,2.71875
1695813616860,0.5810547,-0.23931885,-0.15704346,-50.015625,0.625,4.453125
1695813616898,0.73046875,0.02142334,-0.07745361,-20.828125,6.671875,5.234375
1695813616949,0.9626465,-0.008605957,-0.050598145,-10.125,14.0625,1.859375
1695813616987,0.97265625,-0.20684814,-0.093322754,-19.71875,11.078125,10.4375
1695813617027,0.8840332,-0.30670166,-0.14068604,-29.53125,9.515625,14.34375
1695813617060,1.0236816,-0.1416626,-0.03277588,-11.09375,13.5625,9.4375
1695813617099,1.2763672,-0.13140869,-0.10821533,-6.203125,22.625,10.234375
1695813617135,1.513916,-0.31378174,-0.21221924,-19.15625,5.140625,24.78125
1695813617198,1.4829102,-0.02178955,-0.33355713,-18.359375,-31.484375,19.640625
1695813617223,1.3359375,0.14935303,-0.24664307,-8.046875,-14.078125,13.046875
1695813617260,0.873291,0.035583496,-0.5081177,-20.453125,0.15625,8.921875
1695813617311,0.6269531,0.049987793,-0.5315552,-13.15625,-1.578125,9.59375
1695813617335,0.7614746,0.35980225,-0.29840088,-16.390625,3.3125,1.984375
1695813617373,1.034668,0.41693115,-0.028869629,-2.265625,11.1875,4.734375
1695813617424,0.98168945,0.10614014,-0.09063721,11.296875,-5.953125,12.296875
1695813617463,0.72509766,-0.093566895,-0.18756104,9.515625,-14.953125,9.65625
1695813617499,0.6435547,-0.06378174,-0.18707275,-0.890625,5.75,-2.640625
1695813617537,0.82421875,0.06341553,-0.20245361,-1.921875,11.515625,-6.71875
1695813617573,0.9916992,0.17938232,-0.10650635,-3.609375,-0.65625,-6.75
1695813617612,0.95532227,0.14202881,0.008483887,-3.453125,2.15625,9.65625
1695813617661,0.81030273,-0.066223145,-0.14556885,5.34375,-3.6875,8.59375
1695813617698,1.0209961,-0.027404785,-0.23443604,-0.25,12.96875,-3.875
1695813617738,1.4970703,0.33880615,0.07977295,-3.046875,3.5,-13.671875
1695813617774,1.2705078,0.20428467,-0.13360596,2.015625,-14.4375,-4.609375
1695813617813,0.99609375,0.10736084,-0.42803955,11.96875,-10.734375,3.859375
1695813617848,0.99902344,0.11273193,-0.3508911,-23.84375,-1.296875,7.921875
1695813617901,0.7260742,-0.23760986,-0.2642212,-26.453125,4.671875,5.9375
1695813617935,0.68115234,-0.19342041,-0.34869385,-17.125,6.875,-5.375
1695813617974,1.0153809,0.16009521,-0.13287354,-0.265625,19.578125,-2.953125
1695813618012,1.2036133,0.1864624,-0.109436035,-11.875,-0.09375,4.046875
1695813618064,0.7895508,0.10662842,-0.10479736,-17.90625,-9.21875,18.640625
1695813618087,0.6586914,0.019958496,-0.1531372,-8.125,1.15625,11.484375
1695813618137,0.72924805,-0.105285645,-0.18707275,1.171875,5.546875,-8.890625
1695813618173,1.0070801,-0.003479004,-0.14312744,-13.265625,8.734375,-11.796875
1695813618211,1.0166016,0.18475342,-0.034729004,-8.390625,0.4375,-5.78125
1695813618253,1.0146484,0.058776855,-0.28546143,18.640625,-1.25,-2.53125
1695813618295,1.4484863,-0.16070557,-0.31427002,14.515625,-8.171875,-8.875
1695813618322,1.420166,-0.039611816,-0.380188,21.90625,-19.421875,-9.640625
1695813618372,1.1650391,0.23968506,-0.38531494,-0.96875,-14.25,4.640625
1695813618410,0.8520508,0.61224365,-0.09185791,16.5,-5.328125,5.328125
1695813618448,0.7182617,0.23895264,-0.09307861,14.625,2.59375,8.5625
1695813618489,0.8598633,-0.019592285,-0.121154785,17.890625,-16.96875,-1.359375
1695813618523,1.0256348,-0.06451416,-0.061340332,12.828125,-16.78125,-16.171875
1695813618573,1.0690918,0.13079834,-0.070129395,18.609375,-27.578125,-16.46875
1695813618614,0.71191406,0.15106201,0.03314209,19.90625,-11.265625,-1.46875
1695813618649,0.6130371,-0.045959473,-0.010314941,11.203125,10.53125,2.015625
1695813618686,0.8461914,-0.17266846,-0.016418457,4.453125,3.546875,-1.75
1695813618723,0.8190918,-0.029846191,-0.022521973,-19.203125,-4.875,2.953125
1695813618760,0.7219238,0.0770874,0.058044434,-10.015625,7.90625,4.53125
1695813618823,0.9890137,0.113708496,0.07318115,-0.015625,29.671875,15.671875
1695813618848,1.4726562,0.015319824,0.07757568,11.15625,25.734375,6.109375
1695813618885,1.4997559,-0.051574707,-0.2925415,12.390625,6.03125,-19.828125
1695813618923,1.2827148,0.26385498,-0.2420044,19.296875,-3.796875,-18.828125
1695813618966,1.1513672,0.0770874,-0.32183838,-33.609375,1.765625,3.15625
1695813618998,0.73876953,-0.17242432,-0.53448486,-32.703125,-23.3125,-7.078125
1695813619049,0.6599121,-0.012512207,-0.32989502,-28.96875,11.25,-13.109375
1695813619084,1.0144043,0.097595215,-0.14874268,-19.734375,-5.34375,-1.40625
1695813619123,1.0439453,-0.019348145,-0.1038208,-8.359375,-12.78125,-8.4375
1695813619160,0.73657227,-0.08404541,-0.13165283,-13.71875,-0.28125,-3.84375
1695813619197,0.6989746,0.010192871,-0.13238525,-18.625,-6.03125,10.640625
1695813619237,0.75390625,-0.09649658,-0.175354,-10.34375,5.3125,-1.21875
1695813619286,0.7233887,-0.0178833,-0.097229004,-19.96875,8.125,-0.609375
1695813619323,0.76123047,-0.10308838,-0.078186035,-18.8125,-2.59375,3.734375
1695813619362,0.92407227,-0.15582275,-0.14898682,-21.890625,-0.171875,2.765625
1695813619398,0.9416504,-0.16265869,-0.08770752,-20.0625,3.140625,3.171875
1695813619439,1.010498,-0.2703247,0.035583496,-33.328125,-5.40625,3.453125
1695813619474,1.0678711,-0.31085205,-0.057922363,-27.796875,-16.84375,-5.484375
1695813619523,1.0803223,-0.33380127,-0.1182251,-28.84375,-21.4375,-16.84375
1695813619562,0.96435547,-0.10357666,-0.07891846,-31.46875,-31.4375,10.59375
1695813619597,0.8125,-0.020080566,-0.21588135,-22.984375,-26.046875,16.828125
1695813619637,1.0439453,0.057556152,-0.40386963,-35.703125,-1.53125,-13.703125
1695813619673,1.0595703,0.078308105,-0.05718994,-47.5,14.6875,-7.9375
1695813619762,1.2243652,0.09124756,-0.22857666,-37.109375,4.828125,3.625
1695813619764,1.003418,-0.1350708,-0.03253174,-36.9375,5.21875,8.65625
1695813619798,1.0073242,-0.28497314,-0.0569458,-37.046875,12.84375,2.875
1695813619836,1.0649414,-0.17193604,-0.12750244,-67.328125,5.296875,-1.78125
1695813619873,0.8208008,-0.16900635,-0.06378174,-58.921875,-18.0625,3.78125
1695813619910,0.77978516,0.06488037,-0.0335083,-52.21875,-8.328125,8.015625
1695813619947,1.0869141,0.06512451,-0.018127441,-47.28125,9.171875,16.890625
1695813619999,0.9589844,-0.18292236,-0.028381348,-59.921875,4.078125,9.015625
1695813620037,0.91552734,-0.13043213,0.023376465,-41.703125,13.078125,7.953125
1695813620080,1.2060547,0.034362793,0.117614746,-43.5,17.703125,13.578125
1695813620123,1.2512207,-0.04425049,-0.039123535,-36.234375,14.5625,-3.28125
1695813620151,1.286377,-0.15460205,-0.33355713,-18.671875,14.296875,-17.4375
1695813620190,1.677002,-0.066711426,-0.42364502,-35.53125,37.71875,6.0
1695813620236,0.8857422,0.059265137,-0.2637329,-75.625,-42.71875,-6.828125
1695813620272,0.35424805,0.1408081,-0.42095947,-27.046875,-1.75,-6.34375
1695813620310,0.6755371,0.028015137,-0.12359619,-33.796875,36.328125,13.71875
1695813620349,1.201416,-0.20611572,-0.22930908,-13.140625,2.1875,12.265625
1695813620390,0.9909668,-0.03302002,-0.16680908,-33.265625,5.75,-7.9375
1695813620424,0.6464844,0.23260498,-0.022277832,-22.0625,5.359375,10.03125
1695813620473,0.6713867,0.07757568,-0.041809082,-4.375,0.9375,17.171875
1695813620510,0.89990234,-0.16217041,-0.12530518,-3.453125,18.765625,-3.0625
1695813620560,0.9379883,-0.206604,-0.12384033,-9.078125,13.4375,-4.640625
1695813620585,0.8483887,-0.043518066,-0.10040283,-15.984375,14.203125,3.0
1695813620623,1.0742188,-0.04156494,-0.22052002,6.125,9.46875,-3.6875
1695813620659,1.5856934,-0.03302002,-0.32965088,13.84375,5.484375,9.09375
1695813620710,1.359375,-0.09039307,-0.4163208,9.265625,-17.296875,18.796875
1695813620748,1.3208008,0.1539917,-0.6585083,25.953125,-3.25,9.875
1695813620787,0.8820801,0.47894287,-0.22320557,-12.578125,-4.859375,5.546875
1695813620824,0.60839844,0.25750732,-0.18804932,-8.109375,-2.515625,18.671875
1695813620860,0.7141113,0.12860107,-0.058166504,20.234375,8.109375,7.0625
1695813620898,1.0058594,0.043395996,-0.2576294,22.1875,-2.46875,-9.546875
1695813620949,0.97436523,0.06488037,-0.14996338,7.15625,-7.0,-10.703125
1695813620985,0.6437988,0.035583496,-0.089904785,7.765625,-0.484375,-3.3125
1695813621024,0.5827637,0.03265381,-0.12310791,11.296875,0.453125,0.109375
1695813621062,0.76586914,0.09295654,-0.035949707,13.21875,-0.15625,-0.046875
1695813621101,0.923584,0.050720215,-0.12213135,11.359375,10.90625,2.0625
1695813621135,0.9638672,-0.037902832,-0.1194458,12.265625,2.953125,4.09375
1695813621187,1.315918,0.1605835,-0.022277832,-2.859375,0.046875,0.96875
1695813621225,1.5175781,0.050231934,-0.20977783,9.890625,-0.234375,-14.8125
1695813621260,1.3105469,0.21966553,-0.41314697,22.21875,-15.828125,-15.53125
1695813621298,1.4873047,0.46258545,-0.40753174,-26.671875,0.171875,1.625
1695813621337,0.6364746,-0.13165283,-0.15020752,-29.453125,-14.78125,8.890625
1695813621374,0.36669922,-0.26837158,-0.40093994,-2.375,-2.328125,-16.828125
1695813621423,0.7211914,0.038024902,-0.15679932,-20.375,22.015625,-14.4375
1695813621459,1.2663574,0.12664795,-0.050598145,-12.046875,-17.90625,-0.1875
1695813621497,0.8203125,0.11224365,-0.14678955,-5.28125,-12.75,-2.125
1695813621535,0.5397949,0.036071777,-0.10455322,-9.78125,0.15625,4.03125
1695813621572,0.6164551,-0.19342041,-0.19659424,0.078125,10.53125,0.71875
1695813621611,0.92993164,-0.14654541,-0.22930908,-6.109375,10.203125,-7.84375
1695813621662,1.1708984,0.09197998,-0.13116455,-7.21875,14.734375,-1.9375
1695813621700,1.1748047,0.14398193,-0.16607666,15.25,3.890625,10.09375
1695813621735,1.4091797,-0.1687622,-0.19146729,19.859375,1.75,7.453125
1695813621773,1.5148926,-0.13336182,-0.40338135,2.171875,9.796875,7.390625
1695813621813,1.2573242,0.0758667,-0.57525635,-15.109375,11.109375,15.78125
1695813621848,1.0043945,0.82147217,-0.13018799,-3.015625,-6.8125,5.4375
1695813621898,0.6286621,0.35736084,-0.3135376,-2.890625,-37.40625,3.015625
1695813621936,0.57470703,-0.27398682,-0.28936768,-2.890625,-6.640625,-7.328125
1695813621973,0.7290039,-0.00982666,-0.21417236,22.609375,-1.078125,-7.296875
1695813622012,0.97021484,0.33172607,0.036071777,17.65625,-14.171875,-3.484375
1695813622049,0.8334961,0.20281982,-0.1194458,22.40625,-9.390625,5.328125
1695813622093,0.6586914,-0.058410645,-0.086242676,9.4375,0.609375,11.8125
1695813622136,0.86572266,-0.1716919,-0.053527832,2.265625,-4.671875,-3.84375
1695813622174,1.1066895,0.078552246,-0.16265869,9.5625,-1.40625,-3.171875
1695813622212,0.9975586,0.101989746,0.029724121,-15.59375,11.90625,-0.421875
1695813622251,1.0063477,0.043884277,-0.029846191,0.234375,-1.109375,-1.90625
1695813622286,1.1044922,-0.012756348,0.038269043,-3.859375,5.5625,-0.703125
1695813622325,1.2485352,0.02142334,-0.37164307,17.984375,-5.96875,-9.03125
1695813622374,1.2607422,0.23626709,-0.27374268,-8.875,13.21875,-0.921875
1695813622413,0.95458984,0.012390137,-0.34503174,-33.4375,-20.5625,-4.375
1695813622449,0.5720215,-0.015197754,-0.34259033,-24.0625,8.0,-7.75
1695813622488,0.85668945,0.078552246,-0.19537354,-6.59375,21.4375,2.5625
1695813622536,1.1662598,0.012145996,-0.18096924,-2.515625,1.84375,5.828125
1695813622562,0.8664551,0.012634277,-0.14654541,-14.15625,0.234375,-4.875
1695813622625,0.6262207,0.03387451,-0.16363525,-13.953125,-3.15625,4.75
1695813622648,0.71240234,-0.074035645,-0.16119385,-8.984375,4.453125,3.234375
1695813622701,0.92089844,-0.09063721,-0.16119385,-12.90625,4.046875,-5.609375
1695813622724,0.9914551,0.029724121,-0.1404419,-9.53125,6.9375,-2.046875
1695813622760,1.0688477,-0.07305908,-0.18389893,-6.296875,5.140625,-1.609375
1695813622811,1.2189941,-0.0020141602,-0.32232666,9.84375,13.765625,2.203125
1695813622848,1.4492188,-0.03741455,-0.25006104,20.140625,5.0625,6.703125
1695813622886,1.220459,0.0119018555,-0.52423096,-1.28125,-1.84375,6.34375
1695813622923,0.97387695,0.3168335,-0.37286377,13.828125,4.390625,6.765625
1695813622959,0.5986328,0.25042725,-0.20806885,-4.1875,-9.09375,5.65625
1695813622998,0.66137695,0.199646,-0.22564697,-0.984375,2.171875,1.09375
1695813623063,1.128418,0.1149292,-0.13336182,24.328125,-5.0,6.078125
1695813623087,1.1230469,-0.011779785,-0.21270752,5.0,-15.234375,-4.0625
1695813623123,0.75878906,0.038024902,-0.15435791,-9.65625,-7.609375,-11.046875
1695813623160,0.6208496,0.047790527,-0.0791626,5.125,-0.203125,0.140625
1695813623198,0.8532715,0.07611084,-0.124572754,14.015625,-4.625,7.109375
1695813623237,1.128418,0.02947998,-0.070373535,7.34375,-10.015625,2.9375
1695813623286,1.013916,0.07562256,-0.11236572,11.109375,-5.609375,-6.171875
1695813623324,0.9482422,-0.023742676,-0.010314941,-12.46875,3.859375,-1.265625
1695813623360,1.1225586,0.022888184,-0.074523926,7.578125,-8.53125,-4.59375
1695813623398,1.2814941,0.0770874,-0.2366333,-10.875,-1.0,-19.203125
1695813623435,1.0656738,0.113464355,-0.49371338,24.671875,-7.734375,-4.859375
1695813623473,1.0717773,0.05657959,-0.23052979,-43.390625,1.90625,-0.984375
1695813623524,0.55615234,-0.27593994,-0.3411255,-24.71875,-16.953125,-11.375
1695813623561,0.62353516,0.04095459,-0.24127197,-18.984375,12.203125,-10.015625
1695813623598,1.1652832,0.18255615,-0.17218018,-3.34375,5.453125,13.015625
1695813623637,1.0449219,-0.043518066,-0.05328369,-13.125,5.0625,-1.53125
1695813623673,0.7133789,-0.14263916,-0.23248291,-21.25,-3.0625,0.0
1695813623724,0.6262207,-0.03668213,-0.17315674,1.6875,8.828125,3.71875
1695813623798,0.9042969,-0.041809082,-0.18902588,-0.078125,19.703125,-2.484375
1695813623800,1.0297852,0.009460449,-0.1416626,-6.90625,0.34375,0.390625
1695813623836,1.0683594,-0.04058838,-0.1585083,5.921875,8.78125,2.6875
1695813623873,1.1401367,-0.18682861,-0.32818604,12.609375,9.59375,-1.109375
1695813623911,1.4130859,-0.116760254,-0.3184204,7.71875,-6.953125,5.09375
1695813623950,1.1782227,-0.08355713,-0.5198364,13.0625,-11.21875,10.03125
1695813623999,1.0473633,0.3883667,-0.30352783,10.6875,-1.71875,18.515625
1695813624035,0.8083496,0.55023193,-0.06793213,-3.765625,-7.484375,11.03125
1695813624085,0.6948242,-0.007873535,-0.20123291,-0.328125,-3.109375,0.265625
1695813624111,0.8544922,-0.25177002,-0.28277588,11.8125,9.359375,-0.5625
1695813624147,1.0180664,0.03363037,-0.22735596,3.8125,-4.4375,-5.609375
1695813624187,0.9362793,0.18841553,-0.06036377,-1.84375,-11.421875,-11.84375
1695813624249,0.7861328,0.117370605,-0.10308838,2.921875,-4.78125,0.609375
1695813624274,0.7192383,-0.07965088,-0.1885376,-1.625,-11.21875,11.859375
1695813624313,0.83691406,-0.08013916,-0.10089111,-2.625,-0.78125,5.796875
1695813624348,0.99609375,0.058288574,-0.12896729,-7.328125,-0.9375,2.515625
1695813624385,1.0563965,0.050964355,-0.023986816,-13.4375,2.296875,10.0625
1695813624437,1.1691895,0.015075684,-0.10626221,-8.59375,-18.15625,7.609375
1695813624476,1.1088867,-0.066711426,-0.08673096,-22.140625,4.90625,-12.625
1695813624510,0.9589844,0.02166748,-0.25811768,0.3125,-17.359375,-20.859375
1695813624547,1.5134277,0.31707764,-0.5029907,-40.390625,17.515625,2.8125
1695813624585,0.7282715,-0.08282471,-0.2468872,-40.421875,-26.109375,-5.21875
1695813624634,0.35742188,-0.24176025,-0.42877197,-26.625,23.265625,-20.25
1695813624659,0.73291016,0.07659912,-0.19293213,-34.625,11.765625,-11.421875
1695813624710,1.458252,-0.020080566,-0.23614502,-15.109375,14.453125,-15.0
1695813624748,1.1584473,-0.13726807,-0.17462158,-38.75,-17.15625,-18.515625
1695813624787,0.7182617,-0.2625122,-0.11480713,-41.734375,-15.796875,13.140625
1695813624823,0.57250977,-0.29595947,-0.12921143,-42.828125,-14.1875,7.046875
1695813624861,0.7573242,-0.26690674,-0.18682861,-45.5625,-11.640625,-13.875
1695813624898,0.8642578,0.0138549805,0.0119018555,-24.203125,-11.0625,-13.125
1695813624949,0.7680664,-0.09503174,-0.09454346,-24.234375,-4.546875,-0.59375
1695813624986,0.58813477,-0.28570557,-0.025939941,-24.015625,-1.484375,11.5625
1695813625024,0.67211914,-0.26763916,-0.14752197,-29.0,24.8125,12.640625
1695813625062,0.96655273,-0.50201416,-0.035217285,-14.875,55.015625,19.65625
1695813625098,1.1811523,-0.4019165,-0.06793213,-27.0,16.5625,45.6875
1695813625136,1.6369629,-0.42071533,-0.2642212,-6.953125,27.890625,45.28125
1695813625187,1.5627441,-0.38653564,-0.018615723,-8.03125,-6.75,23.578125
1695813625223,1.3178711,-0.21026611,-0.48687744,10.96875,-45.84375,5.265625
1695813625259,1.2041016,0.18499756,-0.39678955,-15.65625,-32.671875,-5.5
1695813625297,0.8005371,0.52948,-0.51104736,-17.015625,-21.34375,3.078125
1695813625337,0.79785156,0.5018921,-0.47418213,-27.25,1.859375,11.40625
1695813625375,1.0209961,0.26483154,-0.24127197,-15.140625,-14.875,-1.5625
1695813625423,0.9260254,0.27435303,-0.2617798,-33.140625,0.515625,0.90625
1695813625461,0.83374023,0.25042725,-0.23834229,-18.265625,-8.28125,4.71875
1695813625499,0.84643555,0.24188232,-0.21881104,-29.796875,0.671875,8.40625
1695813625537,0.8730469,0.034362793,-0.14776611,-21.96875,7.703125,-0.59375
1695813625574,0.8996582,0.029968262,-0.14849854,-28.0625,3.125,3.0
1695813625611,0.8894043,0.1408081,-0.08892822,-17.28125,-2.78125,3.640625
1695813625673,0.9621582,0.13983154,0.005554199,-20.46875,-8.28125,1.6875
1695813625697,0.9555664,-0.011291504,-0.11846924,-13.703125,-9.4375,3.234375
1695813625748,0.93847656,-0.13311768,-0.11090088,-17.703125,-9.34375,-4.65625
1695813625773,1.027832,0.034851074,-0.061828613,-42.546875,3.578125,-1.265625
1695813625812,1.1130371,0.07171631,-0.014465332,-27.234375,-0.625,-4.453125
1695813625849,1.1577148,0.043884277,0.03387451,-20.359375,-0.390625,-15.078125
1695813625898,1.1411133,0.08050537,-0.09625244,-33.6875,-1.453125,-11.015625
1695813625936,1.1279297,0.03778076,-0.4631958,-6.65625,8.40625,0.828125
1695813625973,0.93237305,0.078063965,-0.31573486,-66.140625,-11.625,11.25
1695813626010,0.51049805,-0.15435791,-0.284729,-25.109375,7.25,-13.3125
1695813626048,0.5895996,-0.14996338,-0.2300415,-21.90625,15.53125,-21.375
1695813626088,1.1367188,0.059509277,-0.15484619,-8.859375,14.5,7.765625
1695813626138,1.0834961,0.18133545,-0.046936035,-16.640625,-0.6875,9.359375
1695813626174,0.76586914,-0.10089111,-0.13482666,-22.171875,-14.203125,10.484375
1695813626210,0.79296875,-0.28912354,-0.17193604,-13.609375,8.1875,-2.25
1695813626253,0.97387695,-0.13995361,-0.18170166,-13.140625,14.234375,-6.90625
1695813626285,1.1125488,0.078552246,-0.09869385,-15.25,2.71875,1.796875
1695813626324,1.0300293,-0.022277832,-0.10992432,-8.40625,3.25,0.109375
1695813626373,1.2199707,-0.2949829,-0.34381104,-8.53125,6.609375,-3.171875
1695813626411,1.0974121,-0.14849854,-0.2883911,14.9375,-10.703125,0.90625
1695813626448,1.1286621,-0.0335083,-0.3411255,9.21875,4.4375,4.484375
1695813626488,1.0681152,0.29656982,-0.17022705,4.3125,-12.90625,13.484375
1695813626535,0.8215332,0.30291748,-0.097961426,-8.84375,-8.84375,11.125
1695813626560,0.67749023,0.13079834,-0.09967041,-8.03125,0.078125,10.828125
1695813626611,0.8317871,-0.031799316,-0.09307861,10.15625,3.3125,5.828125
1695813626648,1.0427246,-0.065979004,-0.19171143,15.125,-9.984375,-1.578125
1695813626703,1.0327148,0.08416748,-0.09576416,-3.3125,-2.734375,-8.890625
1695813626727,0.77246094,0.06561279,-0.039367676,-1.21875,-3.15625,3.234375
1695813626773,0.8249512,0.0289917,-0.03741455,8.640625,7.765625,6.765625
1695813626815,1.0910645,0.0524292,-0.02520752,5.5,7.296875,8.5625
1695813626847,1.1228027,-0.035705566,-0.13140869,-3.53125,-0.296875,6.921875
1695813626886,0.9916992,-0.012512207,-0.047424316,-16.5625,6.71875,0.390625
1695813626924,1.074707,0.074645996,-0.032043457,-11.1875,2.671875,0.4375
1695813626960,1.0932617,0.07220459,-0.027404785,-17.671875,-2.078125,-11.671875
1695813626998,1.045166,-0.0017700195,-0.427063,20.890625,-13.703125,-7.578125
1695813627049,1.1235352,0.11029053,-0.32086182,-43.609375,0.140625,7.109375
1695813627089,0.5944824,-0.333313,-0.395813,-28.828125,-12.203125,-4.96875
1695813627124,0.5046387,-0.1687622,-0.2913208,-31.78125,19.515625,-23.140625
1695813627161,1.0292969,0.17449951,-0.1843872,-24.125,5.0625,-3.921875
1695813627199,1.3422852,0.10223389,-0.1831665,-5.671875,0.15625,0.4375
1695813627238,0.8671875,-0.077941895,-0.17681885,-28.625,-8.578125,-4.921875
1695813627298,0.7092285,-0.2678833,-0.17730713,-24.0,-1.484375,5.21875
1695813627325,0.8234863,-0.2876587,-0.18218994,-34.015625,0.984375,-7.453125
1695813627373,0.8815918,-0.12896729,-0.101867676,-40.828125,0.96875,-9.484375
1695813627410,0.8679199,-0.02911377,-0.019104004,-28.984375,-3.09375,1.078125
1695813627436,0.83447266,-0.1194458,-0.06964111,-23.78125,-5.296875,6.046875
1695813627474,0.84472656,-0.26641846,-0.024719238,-28.71875,-2.609375,3.125
1695813627524,0.86621094,-0.36773682,0.026062012,-34.140625,-1.796875,-1.140625
1695813627574,1.0007324,-0.2420044,-0.03643799,-33.0,-16.859375,2.34375
1695813627599,1.0505371,-0.17144775,9.1552734E-4,-25.4375,-12.328125,4.234375
1695813627637,1.2075195,-0.21417236,0.089782715,-21.578125,0.90625,15.046875
1695813627673,1.1467285,-0.4036255,-0.13311768,-11.875,-32.75,9.140625
1695813627710,1.0200195,-0.3057251,-0.5527954,-10.390625,-11.28125,-8.453125
1695813627799,0.99316406,0.44696045,-0.13824463,-41.15625,2.921875,-7.09375
1695813627801,0.83984375,0.2399292,-0.14801025,-30.765625,3.390625,-5.15625
1695813627851,0.9313965,-0.29693604,-0.09283447,-16.171875,14.609375,-5.140625
1695813627874,1.3234863,-0.2144165,-0.24298096,-20.765625,-3.0,5.734375
1695813627912,1.0993652,-0.012023926,-0.03717041,-46.65625,-9.28125,-2.609375
1695813627949,0.63549805,0.0045776367,0.057556152,-42.328125,0.59375,1.765625
1695813627999,0.7062988,-0.06768799,0.03338623,-29.609375,1.359375,16.765625
1695813628036,0.96728516,-0.24517822,0.018005371,-34.1875,-2.859375,12.28125
1695813628073,1.1450195,-0.2642212,-0.023742676,-41.03125,11.234375,3.921875
1695813628111,1.0129395,0.053894043,-0.13824463,-33.625,4.234375,10.546875
1695813628149,0.7619629,0.12200928,0.17718506,-24.828125,6.84375,12.25
1695813628186,1.1831055,-0.14239502,0.086364746,-23.15625,26.59375,1.640625
1695813628236,1.5170898,-0.33184814,-0.175354,-26.625,25.1875,-16.046875
1695813628274,1.2077637,0.012634277,-0.23443604,-29.5625,-5.71875,-11.390625
1695813628311,1.3166504,0.21624756,-0.37750244,-38.234375,23.5625,12.0625
1695813628350,0.84375,0.049743652,-0.16705322,-63.6875,-26.53125,10.171875
1695813628386,0.43945312,-0.11138916,-0.44708252,-15.890625,9.4375,6.734375
1695813628426,0.7077637,-0.06719971,-0.26885986,-18.4375,38.515625,-2.65625
1695813628474,1.1845703,-0.053527832,-0.1638794,-14.046875,15.078125,8.0625
1695813628512,1.1679688,0.14031982,-0.17510986,-23.125,-8.171875,4.578125
1695813628550,0.7421875,0.062683105,-0.061340332,-8.703125,-0.765625,14.28125
1695813628586,0.78027344,-0.1716919,-0.15533447,-3.515625,-0.6875,8.171875
1695813628623,0.91308594,-0.13189697,-0.08282471,-18.859375,0.8125,-4.5625
1695813628685,0.8925781,-0.086242676,-0.14239502,-17.609375,9.453125,2.453125
1695813628710,0.9182129,-0.11773682,-0.17242432,-17.96875,10.125,5.90625
1695813628749,1.5,-0.20367432,-0.2793579,-14.875,7.296875,-6.203125
1695813628786,1.1738281,-0.11871338,-0.21270752,-21.265625,-15.71875,2.265625
1695813628837,0.9404297,-0.05328369,-0.38726807,-5.53125,-10.921875,6.1875
1695813628862,1.3466797,0.12371826,-0.34014893,1.625,-8.46875,-3.5625
1695813628899,1.0388184,0.48919678,-0.24371338,3.59375,-1.125,8.265625
1695813628950,0.62890625,0.19891357,-0.12554932,-6.90625,-4.5,12.578125
1695813628985,0.6274414,0.10028076,-0.05255127,9.609375,2.703125,2.0625
1695813629022,0.98706055,-0.06304932,-0.066223145,17.4375,5.96875,-5.875
1695813629061,1.128418,-0.00982666,-0.14483643,-0.546875,-5.796875,-4.546875
1695813629125,0.8022461,0.0045776367,-0.053527832,15.359375,-4.109375,-1.734375
1695813629136,0.72143555,0.054626465,-0.06817627,5.21875,-7.234375,-2.34375
1695813629189,0.9243164,-0.01739502,0.018981934,1.96875,-0.71875,3.09375
1695813629224,1.0341797,-0.003479004,-0.089660645,4.96875,3.5625,1.765625
1695813629261,1.1540527,-0.0010375977,-0.07720947,-6.96875,13.3125,-0.828125
1695813629298,1.1943359,0.090270996,-0.101135254,-0.171875,1.890625,-1.640625
1695813629335,1.1557617,0.13372803,0.016540527,-11.75,4.578125,-1.53125
1695813629373,1.1342773,0.08099365,-0.3657837,20.890625,-11.734375,-2.0625
1695813629425,1.0866699,-0.023254395,-0.31280518,-30.34375,10.71875,-2.53125
1695813629462,0.74658203,-0.26202393,-0.27911377,-26.359375,-2.046875,-0.71875
1695813629499,0.5810547,-0.109436035,-0.29400635,-13.796875,3.234375,-16.703125
1695813629536,0.8430176,0.12445068,-0.13775635,-0.8125,14.4375,-3.890625
1695813629573,1.0256348,0.012878418,-0.112854004,1.359375,2.328125,4.171875
1695813629654,0.8417969,-0.18585205,-0.11138916,-10.03125,2.9375,-0.125
1695813629667,0.77563477,-0.054748535,-0.16973877,-0.375,-5.28125,8.265625
1695813629698,0.7890625,0.016296387,-0.1975708,-0.71875,13.96875,0.65625
1695813629736,0.890625,-0.089660645,-0.15460205,1.421875,26.25,-1.71875
1695813629774,1.0788574,4.272461E-4,-0.09283447,-2.6875,9.59375,3.6875
1695813629811,1.0546875,-0.09259033,-0.2156372,5.296875,8.234375,-2.25
1695813629849,1.2783203,-0.255188,-0.4048462,17.4375,7.3125,-9.984375
1695813629900,1.4291992,-0.081604004,-0.23931885,7.296875,-22.296875,-0.140625
1695813629938,1.1364746,-0.20269775,-0.598938,25.59375,-18.28125,8.921875
1695813629974,1.0898438,0.27825928,-0.2774048,1.0,-15.78125,4.546875
1695813630009,0.74243164,0.4730835,-0.120910645,3.84375,-6.515625,5.875
1695813630048,0.6335449,0.12371826,-0.16217041,6.015625,-1.140625,10.796875
1695813630086,0.90112305,-0.05255127,-0.17706299,25.265625,3.984375,2.09375
1695813630136,1.0407715,-0.10235596,-0.23883057,10.25,-0.6875,-7.546875
1695813630174,0.8359375,0.011657715,-0.17510986,-4.421875,-2.484375,-3.140625
1695813630212,0.6604004,0.030212402,-0.14801025,0.03125,0.34375,4.203125
1695813630254,0.7441406,0.0692749,-0.06695557,7.109375,-0.171875,3.0
1695813630285,1.0100098,0.105895996,-0.06768799,13.578125,0.859375,3.8125
1695813630323,1.1496582,-0.07110596,-0.17218018,-1.25,-0.296875,7.5625
1695813630374,1.2246094,-0.09918213,-0.097717285,-2.609375,1.0,-1.109375
1695813630410,1.2526855,0.15325928,0.00579834,-15.34375,-5.25,-3.578125
1695813630449,1.1462402,0.2868042,-0.20391846,-0.234375,-8.140625,-13.1875
1695813630487,1.2983398,-0.06402588,-0.41949463,-0.84375,-5.609375,4.203125
1695813630527,0.8852539,0.02923584,-0.31280518,-42.03125,-27.828125,3.640625
1695813630560,0.4494629,-0.27886963,-0.25665283,-16.78125,-5.53125,-16.5625
1695813630610,0.7531738,-0.09234619,-0.14874268,-9.8125,2.515625,-24.84375
1695813630648,1.3029785,0.11663818,-0.12432861,0.6875,-10.3125,-6.203125
1695813630687,0.8300781,0.001159668,-0.09136963,-9.9375,-25.6875,-4.703125
1695813630726,0.5019531,-0.070617676,-0.07281494,-12.140625,-7.625,-0.734375
1695813630760,0.5505371,-0.12872314,-0.11895752,-4.40625,-4.078125,6.0625
1695813630811,0.7312012,-0.11602783,-0.06085205,-10.78125,1.46875,-5.34375
1695813630849,1.0539551,-0.07965088,0.018249512,10.40625,13.875,-2.859375
1695813630887,1.2133789,-0.08795166,-0.093322754,2.828125,11.203125,-0.234375
1695813630924,1.3596191,-0.18023682,-0.109680176,14.328125,19.25,1.609375
1695813630974,1.4223633,-0.17803955,-0.25323486,25.59375,16.40625,9.90625
1695813630999,1.3398438,-0.2078247,-0.5274048,24.015625,-1.53125,9.734375
1695813631054,1.1452637,0.28607178,-0.16583252,-13.421875,-2.734375,6.828125
1695813631085,0.7001953,0.32244873,-0.06378174,-11.34375,-8.53125,12.546875
1695813631123,0.62475586,0.1942749,-0.10870361,-3.0625,5.640625,14.328125
1695813631162,1.0039062,-0.07940674,-0.12701416,22.40625,3.03125,3.609375
1695813631199,1.1079102,-0.13238525,-0.20050049,0.65625,-5.875,-11.046875
1695813631236,0.7392578,0.14764404,-0.047912598,-10.21875,-7.890625,-2.65625
1695813631285,0.55566406,0.05999756,-0.07110596,13.40625,1.875,7.203125
1695813631323,0.8039551,0.0016479492,-0.026916504,2.1875,17.640625,4.90625
1695813631360,1.1137695,-0.014953613,-0.10040283,16.453125,6.765625,8.546875
1695813631399,1.0888672,-0.06524658,-0.14923096,-0.875,8.5625,3.03125
1695813631435,1.1032715,-0.03277588,-0.13555908,-16.65625,11.78125,-3.921875
1695813631473,1.0131836,0.015563965,-0.16363525,-16.359375,0.203125,-2.078125
1695813631524,1.1130371,0.23309326,-0.3171997,24.28125,-6.03125,-17.96875
1695813631563,1.4902344,0.23431396,-0.4368286,-18.703125,8.046875,8.375
1695813631600,0.80688477,-0.2822876,-0.27471924,-29.78125,-22.90625,11.484375
1695813631636,0.32885742,-0.3616333,-0.36358643,-15.9375,8.3125,-17.953125
1695813631675,0.75683594,0.10418701,-0.22906494,-18.28125,6.84375,-5.4375
1695813631712,1.4406738,0.2592163,-0.065979004,-16.984375,3.359375,13.171875
1695813631799,1.0166016,-0.021057129,-0.18023682,-15.453125,-8.90625,-1.265625
1695813631801,0.6152344,-0.19439697,-0.15020752,-30.96875,0.109375,7.78125
1695813631834,0.5656738,-0.13311768,-0.16998291,-16.28125,3.296875,6.28125
1695813631873,0.85961914,-0.055236816,-0.15582275,-13.140625,5.125,-4.890625
1695813631911,1.2189941,-0.03277588,-0.08843994,-13.609375,2.328125,-4.65625
1695813631948,1.2026367,-0.13726807,-0.144104,-16.265625,-2.59375,0.921875
1695813631999,1.3435059,-0.20709229,-0.23760986,-8.578125,0.859375,4.859375
1695813632035,1.1970215,-0.2859497,-0.35650635,13.0625,-13.75,-0.390625
1695813632074,0.98046875,-0.11895752,-0.45440674,-11.71875,-17.953125,9.265625
1695813632110,1.1914062,0.5631714,-0.14654541,-19.515625,-11.90625,11.796875
1695813632162,0.8198242,0.28729248,-0.21881104,-23.375,-24.453125,3.6875
1695813632186,0.55737305,-0.06719971,-0.25689697,-18.25,0.984375,-6.546875
1695813632236,0.82250977,-0.19024658,-0.11846924,-1.640625,0.125,-5.40625
1695813632275,1.1047363,0.050231934,-0.08087158,-12.828125,-24.421875,-3.359375
1695813632312,0.9614258,0.08929443,0.117370605,-11.421875,-16.359375,-3.578125
1695813632347,0.7531738,-0.097473145,-0.07208252,-7.8125,-7.53125,-12.625
1695813632386,0.7453613,-0.22320557,-0.047912598,-0.125,-12.5625,-19.515625
1695813632422,0.8000488,-0.13775635,0.016052246,-11.5,6.03125,0.1875
1695813632473,0.8864746,-0.12261963,0.0021362305,-10.78125,18.0625,-0.203125
1695813632511,1.0944824,-0.06524658,0.0524292,5.265625,12.234375,4.28125
1695813632548,1.2219238,-0.07940674,0.1630249,-17.3125,25.75,8.765625
1695813632587,1.0043945,-0.17462158,0.015563965,-21.890625,-0.421875,2.8125
1695813632624,1.0786133,-0.21783447,-0.02154541,-22.46875,20.5625,-3.328125
1695813632662,1.0695801,0.02142334,-0.11456299,-31.46875,-12.40625,-6.796875
1695813632711,1.3535156,0.22283936,-0.55914307,7.921875,2.109375,23.015625
1695813632751,0.9289551,-0.11993408,-0.4229126,-28.46875,-25.65625,-19.515625
1695813632787,0.52001953,-0.2522583,-0.26080322,-53.28125,29.234375,1.609375
1695813632824,0.8352051,4.272461E-4,-0.50787354,-6.0,4.203125,2.96875
1695813632860,1.1782227,-0.31256104,-0.1729126,-23.78125,18.578125,-2.640625
1695813632899,0.98168945,-0.20880127,-0.16485596,-24.265625,-5.875,-4.921875
1695813632947,0.7722168,-0.05206299,-0.1453247,-31.78125,-9.359375,9.296875
1695813632986,0.7314453,-0.046203613,-0.13800049,-27.09375,-0.140625,11.59375
1695813633023,0.814209,-0.15386963,-0.10650635,-21.75,-1.71875,0.328125
1695813633061,0.95092773,-0.1663208,-0.059387207,-25.75,-2.9375,-2.296875
1695813633101,0.90771484,-0.10845947,-0.018615723,-23.859375,-13.984375,1.125
1695813633138,0.6767578,-0.17633057,-0.0881958,-23.96875,-8.0,7.171875
1695813633187,0.71362305,-0.29327393,-0.02154541,-22.390625,1.375,4.40625
1695813633225,0.98950195,-0.18145752,0.05291748,-30.953125,-5.21875,1.421875
1695813633262,1.1074219,-0.14263916,0.061950684,-26.5,-9.921875,-0.265625
1695813633312,0.80493164,-0.32598877,0.023132324,-16.234375,6.75,2.015625
1695813633336,0.8383789,-0.41363525,0.017028809,-13.71875,19.234375,12.0
1695813633374,1.2570801,-0.29766846,0.014831543,-10.859375,14.3125,16.9375
1695813633423,1.769043,-0.26617432,-0.0647583,4.0,17.3125,11.203125
1695813633461,1.5966797,-0.29278564,-0.13800049,-15.703125,-15.015625,12.828125
1695813633499,1.2756348,-0.22052002,-0.5786743,-10.703125,-10.0,0.78125
1695813633536,0.8977051,0.13665771,-0.51153564,-26.3125,-3.921875,-2.796875
1695813633573,0.7145996,0.28753662,-0.39605713,-22.0625,9.8125,-7.046875
1695813633610,1.0280762,0.5321655,-0.1326294,-21.921875,-5.421875,7.671875
1695813633661,0.92285156,-0.016174316,-0.1026001,-36.84375,-8.703125,12.3125
1695813633699,0.78515625,-0.37652588,-0.23394775,-18.015625,-8.625,-9.78125
1695813633736,0.68188477,-0.031066895,-0.18780518,-14.25,4.734375,-3.03125
1695813633774,0.8190918,0.1930542,-0.120666504,-8.328125,10.96875,5.78125
1695813633811,0.85961914,0.06439209,-0.04864502,-9.953125,10.296875,6.5
1695813633849,0.92700195,-0.07159424,-0.07720947,-5.609375,0.390625,10.171875
1695813633898,0.85498047,-0.124572754,-0.0725708,-0.078125,2.296875,10.703125
1695813633950,0.7714844,-0.047912598,-0.17681885,-15.9375,3.59375,6.3125
1695813633973,0.9313965,0.007507324,0.026550293,-13.046875,11.953125,13.828125
1695813634010,1.2080078,0.015563965,-0.11920166,2.578125,7.640625,10.296875
1695813634049,1.0895996,0.055603027,-0.06915283,-7.15625,1.828125,7.265625
1695813634086,1.0827637,-0.032043457,-0.17608643,-23.15625,4.0,-0.15625
1695813634137,1.1977539,-0.10064697,-0.4385376,14.578125,2.984375,-12.515625
1695813634174,1.6208496,0.25335693,-0.4175415,-14.828125,14.15625,-11.625
1695813634210,1.1254883,-0.055236816,-0.28375244,-51.78125,-20.859375,-5.015625
1695813634248,0.4267578,-0.031311035,-0.36383057,-12.3125,-8.796875,-5.25
1695813634286,0.52368164,0.0067749023,-0.2185669,-18.625,12.515625,-0.25
1695813634324,1.0268555,-0.06451416,-0.13848877,-10.40625,2.671875,-3.46875
1695813634374,1.0300293,-0.14776611,-0.23468018,-17.5625,-8.1875,-9.734375
1695813634414,0.7668457,0.0028686523,-0.054992676,-23.90625,1.53125,2.4375
1695813634463,0.73535156,0.04168701,-0.06890869,-15.6875,-1.96875,10.3125
1695813634490,0.72753906,-0.10430908,-0.062561035,-18.796875,7.265625,3.984375
1695813634525,0.89038086,-0.1873169,-0.12335205,-17.1875,3.21875,-4.3125
1695813634561,0.79833984,0.010681152,-0.13653564,5.078125,-2.046875,-7.078125
1695813634611,0.78466797,-0.059143066,-0.1375122,6.296875,13.828125,3.34375
1695813634649,1.1062012,-0.15118408,-0.14605713,-6.203125,21.90625,9.28125
1695813634685,1.3676758,-0.284729,-0.20343018,0.578125,4.90625,0.03125
1695813634723,1.4763184,-0.18585205,-0.30548096,22.1875,3.21875,2.90625
1695813634761,1.4321289,-0.15411377,-0.34625244,-2.359375,2.65625,25.328125
1695813634811,1.300293,0.20550537,-0.5706177,19.015625,-16.125,13.3125
1695813634848,0.73706055,0.30169678,-0.17022705,-19.90625,-3.078125,5.609375
1695813634886,0.6003418,0.17279053,-0.300354,-6.59375,1.359375,9.578125
1695813634924,0.8312988,-0.023010254,-0.10650635,-10.796875,-6.9375,4.484375
1695813634960,1.0178223,-0.16143799,-0.15264893,-0.828125,-27.671875,-2.5625
1695813634998,0.83691406,0.022888184,-0.028869629,-10.65625,-15.53125,-10.4375
1695813635048,0.72802734,0.05657959,-0.09649658,5.203125,-7.421875,-4.015625
1695813635086,0.7885742,-0.04083252,-0.031799316,10.953125,-3.234375,3.59375
1695813635125,0.8120117,-0.06451416,-0.03326416,-0.28125,9.25,10.78125
1695813635163,0.9404297,0.009216309,-0.097229004,14.296875,7.9375,11.84375
1695813635200,1.2568359,0.12713623,-0.086242676,23.96875,9.40625,7.265625
1695813635250,1.3676758,0.08734131,-0.093811035,-6.96875,13.203125,0.90625
1695813635285,1.1115723,-0.13214111,-0.07965088,-24.921875,-9.15625,-2.796875
1695813635324,0.86328125,-0.18145752,-0.30718994,9.875,1.125,-23.53125
1695813635361,1.0454102,0.007507324,-0.45196533,-39.28125,9.390625,2.359375
1695813635399,0.9482422,-0.11187744,-0.3460083,-36.75,-8.484375,-3.8125
1695813635438,0.6064453,-0.038391113,-0.37872314,-28.71875,9.03125,-12.828125
1695813635475,0.8498535,0.246521,-0.14239502,-28.546875,7.34375,1.40625
1695813635525,1.0634766,-0.06304932,-0.16436768,-23.453125,4.90625,8.421875
1695813635560,0.8457031,-0.253479,-0.21466064,-42.234375,-0.53125,-2.046875
1695813635598,0.71240234,-0.21270752,-0.21832275,-46.609375,-3.515625,4.265625
1695813635637,0.86987305,-0.066467285,-0.17218018,-42.390625,-5.21875,1.546875
1695813635674,0.7753906,0.015808105,-0.042541504,-43.734375,-6.0,0.453125
1695813635712,0.7844238,-0.1482544,-0.07330322,-30.796875,-5.125,3.546875
1695813635799,0.85253906,-0.35357666,-0.043762207,-31.5,-2.875,3.3125
1695813635802,0.83691406,-0.29400635,-0.0491333,-32.015625,-6.234375,5.140625
1695813635841,0.9460449,-0.19561768,0.0065307617,-30.6875,-4.421875,8.734375
1695813635873,1.1982422,-0.30718994,0.035095215,-28.984375,-8.609375,-1.03125
1695813635911,1.2058105,-0.40679932,0.02557373,-32.78125,-14.6875,3.84375
1695813635949,1.0710449,-0.30010986,-0.34332275,-18.359375,-31.0625,14.546875
1695813635999,1.208252,-0.074279785,-0.56036377,2.59375,-18.953125,-9.296875
1695813636037,1.1154785,0.46307373,-0.09698486,-46.75,-6.84375,-12.609375
1695813636074,0.9465332,0.18621826,-0.14361572,-41.21875,2.59375,1.203125
1695813636111,1.0693359,-0.34625244,-0.2276001,-31.546875,-0.359375,-2.515625
1695813636148,1.0554199,-0.2041626,-0.11187744,-30.484375,-16.34375,1.1875
1695813636187,0.9694824,-0.062561035,-0.027160645,-63.140625,-3.640625,-0.734375
1695813636241,0.6940918,0.03265381,0.05267334,-52.546875,-7.578125,1.375
1695813636274,0.70751953,0.053894043,0.11956787,-29.90625,-3.984375,16.96875
1695813636310,0.98583984,-0.0869751,0.184021,-29.09375,-1.71875,14.0625
1695813636351,1.0095215,-0.24127197,0.0040893555,-22.765625,-2.171875,2.46875
1695813636387,0.8425293,-0.12701416,0.15667725,-36.8125,11.625,4.6875
1695813636439,0.98461914,-0.08428955,0.012390137,-17.828125,32.0625,4.65625
1695813636475,1.1713867,-0.14727783,0.22064209,-21.25,33.09375,-1.96875
1695813636513,1.517334,0.07635498,-0.3579712,17.65625,44.875,-10.96875
1695813636574,1.5300293,0.18426514,-0.27471924,-8.859375,16.515625,0.609375
1695813636586,1.3132324,-0.12701416,-0.46661377,-65.21875,10.75,2.765625
1695813636623,0.64282227,-0.315979,-0.43341064,-37.015625,-11.03125,-12.125
1695813636674,0.48291016,0.038269043,-0.43951416,-35.25,12.78125,-7.015625
1695813636712,0.8991699,0.17132568,-0.17633057,-24.625,19.46875,8.09375
1695813636749,1.1806641,-0.09967041,-0.15777588,-12.484375,2.046875,2.546875
1695813636787,0.68896484,-0.08282471,-0.21099854,-26.453125,-3.140625,-0.4375
1695813636825,0.4958496,0.050476074,-0.17901611,-18.921875,7.328125,16.0
1695813636861,0.66796875,-0.13018799,-0.1897583,-13.375,13.453125,9.703125
1695813636903,0.92285156,-0.14019775,-0.18682861,-11.640625,10.296875,-5.171875
1695813636949,0.9987793,-0.043762207,-0.16314697,-11.265625,7.015625,1.015625
1695813636986,0.8520508,-0.062072754,-0.16021729,-9.828125,0.953125,8.515625
1695813637023,0.8623047,-0.19073486,-0.20489502,-8.265625,11.390625,5.640625
1695813637062,1.1469727,-0.21734619,-0.19317627,0.734375,9.046875,-5.34375
1695813637100,1.534668,-0.10723877,-0.2883911,3.0,-4.3125,4.890625
1695813637149,1.4143066,-0.1296997,-0.38726807,-3.71875,-11.03125,13.921875
1695813637187,1.4992676,-0.11065674,-0.37994385,-1.921875,-13.09375,17.125
1695813637224,1.1552734,0.035095215,-0.27764893,-18.75,-16.59375,1.25
1695813637262,0.70996094,0.18133545,-0.269104,-12.375,-15.78125,4.390625
1695813637299,0.5480957,0.16790771,-0.30108643,2.375,-30.78125,1.625
1695813637337,0.8154297,0.0692749,-0.05255127,-2.6875,-19.328125,-5.265625
1695813637373,1.1091309,-0.034240723,-0.07354736,7.5625,-4.015625,2.4375
1695813637424,0.6994629,-0.020324707,-0.12359619,10.921875,5.09375,-5.765625
1695813637461,0.53808594,-0.11260986,-0.058898926,1.40625,0.15625,6.09375
1695813637499,0.8112793,-0.061340332,0.028259277,5.671875,0.46875,6.421875
1695813637538,0.9716797,-0.0051879883,-0.062805176,-3.671875,-2.796875,0.28125
1695813637574,1.0036621,-0.07696533,0.024597168,-13.359375,-0.609375,6.03125
1695813637613,1.1816406,-0.06793213,-0.109436035,11.578125,9.34375,-5.046875
1695813637662,1.2861328,0.25775146,0.06488037,7.78125,20.984375,-4.46875
1695813637700,1.2333984,0.024108887,-0.13897705,7.96875,13.109375,-7.625
1695813637736,1.0825195,0.05609131,-0.42144775,36.125,-10.875,-3.578125
1695813637774,1.1704102,0.17572021,-0.36187744,-40.4375,31.109375,6.015625
1695813637811,0.78100586,-0.44171143,-0.36260986,-29.640625,-17.265625,-3.53125
1695813637849,0.34887695,-0.30474854,-0.30841064,-24.359375,10.25,-29.59375
1695813637901,0.7636719,0.27191162,-0.10040283,-15.15625,8.046875,-3.609375
1695813637936,1.2978516,0.19696045,-0.13140869,10.6875,-9.984375,8.640625
1695813637984,0.77734375,-0.1338501,-0.19195557,-20.578125,-2.234375,0.421875
1695813638011,0.6298828,-0.07159424,-0.08721924,-8.59375,-0.625,9.953125
1695813638048,0.7858887,-0.24249268,-0.21636963,0.265625,10.28125,-2.171875
1695813638086,0.81811523,-0.12286377,-0.22198486,-1.171875,12.453125,-5.640625
1695813638135,0.9633789,0.055114746,-0.07940674,-4.703125,12.78125,5.671875
1695813638172,1.0673828,-0.043518066,-0.11773682,8.03125,7.234375,1.984375
1695813638210,1.3234863,-0.19805908,-0.2937622,34.171875,3.8125,-0.890625
1695813638249,1.5119629,-0.1963501,-0.3045044,1.625,0.0625,6.40625
1695813638289,1.2729492,-0.11456299,-0.5906372,20.703125,-29.421875,8.796875
1695813638324,1.2714844,0.25628662,-0.29693604,35.484375,-15.484375,0.3125
1695813638374,0.8249512,0.52142334,0.016296387,-6.671875,-10.765625,8.953125
1695813638410,0.5969238,-0.050109863,-0.36798096,12.0,-11.109375,9.296875
1695813638448,0.5683594,-0.21832275,-0.22662354,12.78125,8.921875,-8.78125
1695813638486,0.9716797,0.05316162,-0.097229004,9.359375,5.03125,-2.0
1695813638524,1.0795898,0.16375732,-0.13165283,14.09375,0.59375,-7.75
1695813638562,0.67749023,1.8310547E-4,-0.1116333,8.265625,-3.84375,-2.34375
1695813638610,0.67089844,-0.022033691,-0.07550049,15.65625,-0.375,11.46875
1695813638648,0.80859375,-0.049621582,-0.11627197,12.71875,3.84375,3.453125
1695813638685,0.93310547,-0.093566895,-0.11456299,4.046875,6.65625,0.421875
1695813638724,0.9506836,-0.066711426,-0.09918213,-8.3125,3.25,3.078125
1695813638762,1.1235352,4.272461E-4,-0.15631104,-3.125,13.828125,5.25
1695813638812,1.4567871,0.010925293,-0.14337158,-5.015625,16.390625,-5.671875
1695813638848,1.3305664,0.21722412,-0.11187744,-3.90625,-16.796875,-23.03125
1695813638888,1.5864258,0.20355225,-0.57940674,13.703125,0.328125,1.109375
1695813638924,0.9243164,0.19085693,-0.18951416,-48.984375,-24.28125,8.734375
1695813638960,0.38500977,-0.6021118,-0.43048096,-14.0,-16.890625,-8.546875
1695813638998,0.44091797,-0.14215088,-0.2432251,-17.953125,30.5625,-21.03125
1695813639049,1.0466309,0.17572021,-0.13214111,-11.734375,-5.859375,4.90625
1695813639087,1.2561035,0.18963623,-0.19610596,-5.796875,-5.0625,2.171875
1695813639125,0.6972656,-0.018859863,-0.16998291,-22.78125,0.0,6.984375
1695813639161,0.5305176,-0.14190674,-0.14141846,-14.296875,-3.6875,11.90625
1695813639200,0.72436523,-0.12921143,-0.17364502,-11.046875,3.625,-1.046875
1695813639235,0.91552734,-0.097717285,-0.10015869,-14.640625,8.5625,-0.890625
1695813639286,1.0397949,-0.039123535,-0.1428833,-13.46875,3.03125,1.53125
1695813639323,1.0993652,-7.9345703E-4,-0.15533447,-0.671875,7.65625,3.828125
1695813639360,1.4345703,-0.08062744,-0.22247314,11.203125,-6.875,2.234375
1695813639399,1.4594727,-0.25177002,-0.29888916,-5.671875,-9.375,4.4375
1695813639438,1.1916504,-0.206604,-0.600647,3.34375,-13.5625,14.5625
1695813639474,1.1376953,0.39398193,-0.11480713,-12.03125,-3.84375,6.234375
1695813639526,0.90185547,0.39227295,-0.16656494,11.28125,-21.828125,3.921875
1695813639566,0.65722656,0.09954834,-0.07281494,13.015625,-19.640625,1.703125
1695813639599,0.7524414,-0.08087158,-0.19464111,34.515625,-10.09375,-5.640625
1695813639636,0.8330078,0.0053100586,-0.20709229,15.046875,-6.390625,-2.21875
1695813639675,0.8059082,-0.005432129,-0.054748535,10.953125,-7.015625,-7.65625
1695813639712,0.704834,0.039489746,0.010192871,-5.15625,-9.296875,-8.296875
1695813639801,0.83984375,0.024353027,0.04534912,6.40625,10.859375,3.328125
1695813639804,0.8581543,-0.07550049,0.0045776367,5.25,3.875,5.859375
1695813639837,0.9880371,-0.17706299,-0.090148926,-3.296875,15.546875,4.734375
1695813639875,1.222168,-0.010559082,-0.08306885,0.671875,18.171875,-4.03125
1695813639912,1.2700195,0.19158936,0.08660889,-6.296875,9.59375,-6.0625
1695813639949,1.2280273,0.029724121,-0.15020752,2.140625,-2.046875,-10.71875
1695813639999,1.2946777,0.04437256,-0.3970337,8.375,6.578125,-0.1875
1695813640038,1.201416,-0.055236816,-0.20123291,-48.3125,-8.640625,1.140625
1695813640073,0.6604004,-0.3579712,-0.40411377,-28.421875,-14.640625,-19.96875
1695813640117,0.63549805,0.013122559,-0.14971924,-29.421875,15.296875,-16.921875
1695813640149,0.9863281,0.039245605,-0.12921143,-0.046875,4.6875,9.140625
1695813640186,0.9123535,-0.10015869,-0.15655518,-8.890625,0.953125,-2.171875
1695813640237,0.6894531,-0.05206299,-0.13287354,-12.0,7.796875,1.140625
1695813640273,0.71850586,-0.066467285,-0.13360596,-2.328125,6.8125,13.96875
1695813640311,0.7548828,-0.113586426,-0.16851807,-7.859375,15.78125,1.640625
1695813640350,0.7446289,-0.043029785,-0.061340332,-0.875,17.265625,4.671875
1695813640386,1.0078125,-0.04840088,-0.1326294,2.03125,18.125,5.671875
1695813640423,1.105957,-0.17218018,-0.28082275,2.953125,10.125,0.09375
1695813640475,1.4162598,-0.18487549,-0.3587036,5.75,7.375,-1.453125
1695813640511,1.5046387,-0.09527588,-0.31744385,0.03125,-13.546875,-1.484375
1695813640549,1.2541504,-0.13482666,-0.61138916,16.21875,-21.875,21.921875
1695813640587,1.1630859,0.44573975,-0.12823486,-6.875,-22.40625,7.578125
1695813640623,0.7438965,0.2675171,-0.22515869,6.359375,-2.234375,1.59375
1695813640661,0.5756836,0.027526855,-0.17608643,1.703125,-8.828125,6.953125
1695813640712,0.8198242,-0.13140869,-0.13189697,27.171875,-6.109375,1.3125
1695813640750,0.95458984,-0.0647583,-0.22467041,5.0,-5.875,-7.34375
1695813640787,0.7980957,-3.0517578E-4,-0.08868408,8.78125,-0.34375,-6.765625
1695813640823,0.78222656,0.03314209,-0.032043457,-4.453125,0.171875,6.359375
1695813640863,0.8942871,0.046569824,-0.038146973,1.609375,6.515625,3.140625
1695813640898,1.0144043,-0.081604004,-0.15997314,-1.25,10.234375,2.734375
1695813640950,1.1970215,-0.1272583,-0.14898682,-10.40625,14.8125,7.171875
1695813640986,1.2712402,0.12445068,-0.11260986,-13.40625,3.203125,-9.421875
1695813641023,1.045166,0.19110107,-0.057434082,-20.640625,-3.125,-5.90625
1695813641061,0.9572754,-0.04864502,-0.24591064,-8.734375,-5.375,-2.984375
1695813641099,0.7741699,-0.15557861,-0.44171143,10.21875,-22.078125,-5.71875
1695813641136,1.059082,0.14471436,-0.34503174,-39.015625,4.53125,4.859375
1695813641187,0.79248047,-0.40997314,-0.34429932,-36.703125,3.40625,-12.03125
1695813641224,0.7619629,-0.30426025,-0.2859497,-42.015625,0.09375,-14.453125
1695813641261,0.96655273,0.18084717,-0.17510986,-16.265625,-10.34375,6.296875
1695813641299,0.86083984,9.1552734E-4,-0.15167236,-21.40625,-4.703125,-7.765625
1695813641336,0.8010254,-0.22540283,-0.13824463,-30.078125,-3.125,0.9375
1695813641373,0.8503418,-0.17462158,-0.21466064,-11.453125,-7.90625,5.5
1695813641424,0.7727051,-0.12432861,-0.14898682,-22.734375,3.703125,-4.65625
1695813641461,0.73535156,-0.14190674,-0.054992676,-24.84375,3.765625,1.28125
1695813641498,0.8388672,-0.18560791,-0.12506104,-19.484375,-1.46875,3.9375
1695813641536,0.8408203,-0.1572876,-0.05621338,-18.140625,1.671875,1.125
1695813641574,0.888916,-0.1831665,-0.018615723,-13.484375,-3.203125,3.828125
1695813641613,0.96484375,-0.22589111,-0.008850098,-19.15625,-1.046875,6.21875
1695813641662,1.0571289,-0.32037354,0.07196045,-19.28125,-4.546875,6.3125
1695813641699,1.0935059,-0.29156494,0.015808105,-12.953125,-13.328125,11.109375
1695813641736,1.0698242,-0.051818848,-0.23077393,2.40625,-25.578125,17.28125
1695813641774,1.1118164,-0.02178955,-0.5442505,0.34375,-18.4375,9.8125
1695813641811,0.98583984,0.06072998,-0.19439697,-27.78125,-1.703125,-13.34375
1695813641849,1.1398926,0.08001709,-0.17633057,-37.9375,6.234375,3.390625
1695813641899,1.0908203,-0.40509033,-0.29351807,-26.3125,-4.96875,4.96875
1695813641937,0.99658203,-0.25567627,-0.18267822,-44.421875,-6.171875,-5.34375
1695813641974,1.0300293,0.04168701,-0.13775635,-62.71875,-2.40625,1.71875
1695813642013,0.78808594,-0.030578613,0.019958496,-50.0625,-3.375,7.765625
1695813642050,0.7895508,-0.03643799,-0.0037231445,-47.03125,1.796875,11.453125
1695813642085,0.8811035,0.14251709,0.14691162,-42.53125,4.90625,16.015625
1695813642136,0.8967285,-0.12579346,0.008728027,-24.5,11.578125,10.578125
1695813642174,0.90478516,-0.14312744,0.08514404,-58.921875,10.625,7.15625
1695813642212,0.99072266,-0.2131958,-0.036193848,-26.671875,7.0625,5.375
1695813642251,1.1062012,-0.09307861,0.015563965,-51.15625,24.515625,3.296875
1695813642289,1.1608887,-0.06915283,0.035339355,-16.484375,13.75,2.34375
1695813642323,1.4147949,0.018005371,-0.18682861,-4.125,12.390625,-15.40625
1695813642373,1.7463379,0.09857178,-0.4661255,20.4375,26.25,-8.65625
1695813642411,1.3156738,-0.34039307,-0.4121704,-71.125,-36.640625,1.234375
1695813642449,0.50561523,-0.16656494,-0.5420532,-36.90625,-8.765625,-13.640625
1695813642486,0.54589844,0.22625732,-0.2642212,-31.28125,12.9375,1.28125
1695813642523,0.97216797,-0.020324707,-0.20440674,-15.78125,3.859375,1.109375
1695813642560,1.0073242,-0.25543213,-0.2637329,-25.9375,-22.828125,-7.671875
1695813642610,0.7619629,-0.02545166,-0.07574463,-22.9375,-1.421875,6.234375
1695813642649,0.68725586,0.066589355,-0.15557861,-11.015625,-6.578125,8.203125
1695813642689,0.8173828,-0.08673096,-0.07110596,-13.359375,7.890625,-3.21875
1695813642723,0.89697266,-0.17730713,-0.12750244,3.109375,12.578125,-1.703125
1695813642760,0.782959,-0.1416626,-0.08502197,-15.859375,17.125,5.203125
1695813642810,0.77783203,-0.116760254,-0.09576416,-3.734375,13.875,4.3125
1695813642850,1.0830078,-0.117492676,-0.20172119,1.1875,20.09375,3.1875
1695813642886,1.2475586,-0.120666504,-0.19195557,6.625,14.671875,5.890625
1695813642923,1.3295898,-0.059631348,-0.29278564,13.34375,2.09375,13.125
1695813642962,1.1831055,-0.13165283,-0.36187744,24.796875,-20.34375,18.734375
1695813643002,1.5549316,-0.117004395,-0.48931885,19.0625,0.15625,9.078125
1695813643050,0.9719238,0.3583374,-0.300354,-5.28125,-9.765625,11.578125
1695813643086,0.5637207,0.3143921,-0.14239502,-2.765625,-3.875,12.078125
1695813643123,0.62524414,0.21160889,-0.066223145,18.015625,8.390625,9.046875
1695813643161,1.0800781,0.001159668,-0.1651001,24.4375,-8.453125,3.296875
1695813643199,1.0031738,-0.1428833,-0.19659424,14.3125,0.296875,-6.734375
1695813643237,0.61865234,-0.026184082,-0.14215088,2.3125,-0.8125,-6.34375
1695813643287,0.6413574,0.17401123,-0.023254395,2.953125,3.53125,1.6875
1695813643324,0.89404297,0.13275146,-0.030822754,18.84375,0.625,6.8125
1695813643361,1.0710449,-0.04107666,-0.057678223,4.28125,0.28125,7.921875
1695813643399,1.0898438,-0.22393799,-0.10040283,-3.03125,-0.65625,-2.40625
1695813643437,1.09375,-0.055725098,-0.13165283,-15.65625,0.671875,-10.28125
1695813643475,1.479248,0.36029053,0.05316162,-5.96875,6.828125,-25.28125
1695813643524,1.2351074,0.12615967,-0.13116455,-7.8125,-38.609375,-15.328125
1695813643561,1.2355957,0.13104248,-0.4841919,6.515625,0.46875,-3.0625
1695813643602,0.9013672,-0.19805908,-0.19122314,-45.921875,-4.34375,-1.109375
1695813643636,0.65844727,-0.38165283,-0.4710083,-30.984375,4.75,-25.953125
1695813643674,0.75097656,0.03729248,-0.13653564,-36.53125,-6.296875,-15.28125
1695813643714,0.9897461,0.117614746,-0.09136963,-10.1875,-11.40625,6.296875
1695813643800,0.8173828,-0.1609497,-0.06744385,-19.125,-12.6875,-3.15625
1695813643803,0.7216797,-0.19439697,-0.028137207,-32.421875,5.40625,2.796875
1695813643836,0.6791992,-0.07183838,-0.08795166,-30.625,-11.0,12.734375
1695813643874,0.74609375,-0.08282471,0.014099121,-28.296875,8.90625,0.640625
1695813643911,0.95581055,-0.070373535,-0.10870361,7.78125,13.75,-5.171875
1695813644000,1.0986328,-0.0017700195,-0.026184082,12.328125,28.234375,11.390625
1695813644003,1.3786621,-0.34869385,-0.1675415,3.140625,18.4375,15.21875
1695813644037,1.3195801,-0.51104736,-0.26519775,-3.75,3.453125,13.40625
1695813644085,1.2861328,-0.1843872,-0.50909424,6.359375,-20.59375,7.953125
1695813644111,1.3947754,0.3361206,-0.2559204,3.390625,-8.328125,3.234375
1695813644149,0.8132324,0.37347412,-0.15118408,-19.390625,-18.359375,9.6875
1695813644187,0.5439453,0.04119873,-0.17144775,-13.09375,-8.796875,13.859375
1695813644235,0.7219238,0.06976318,-0.042785645,-9.390625,-5.734375,0.390625
1695813644274,1.0444336,0.00970459,-0.09185791,-11.109375,-13.28125,-6.046875
1695813644311,0.85717773,0.039489746,-0.09136963,-4.546875,-9.578125,-12.140625
1695813644348,0.6516113,0.08685303,-0.026428223,-19.8125,-4.53125,0.21875
1695813644385,0.7548828,-0.046447754,0.0018920898,-4.78125,-6.03125,-4.421875
1695813644423,0.8239746,-0.08355713,-0.034729004,-16.28125,0.78125,-8.890625
1695813644474,0.7697754,-0.055725098,0.058288574,-22.375,1.0625,-1.375
1695813644511,0.8076172,-0.15411377,0.05218506,-21.296875,3.296875,-6.671875
1695813644549,0.9580078,-0.15802002,0.070739746,-33.03125,3.1875,-10.015625
1695813644586,1.0734863,-0.14312744,0.11566162,-35.9375,-12.84375,-6.578125
1695813644623,1.0751953,-0.016662598,0.1473999,-42.875,-11.109375,-19.796875
1695813644665,1.0004883,-0.11212158,0.21575928,-41.90625,-12.1875,-21.828125
1695813644712,0.94189453,-0.14678955,-0.364563,-21.390625,-3.9375,-6.609375
1695813644750,1.4436035,-0.25372314,-0.4805298,-46.625,12.203125,-4.34375
1695813644788,0.95166016,-0.19171143,-0.12896729,-77.71875,12.84375,-2.25
1695813644823,0.8803711,-0.13458252,-0.25054932,-31.671875,2.3125,-8.15625
1695813644861,1.0107422,-0.1272583,-0.019836426,-44.84375,2.84375,0.484375
1695813644898,1.0222168,-0.39678955,-0.07940674,-40.34375,6.96875,1.734375
1695813644949,0.7260742,-0.35528564,-0.051574707,-62.59375,8.46875,-9.4375
1695813644986,0.80566406,-0.13092041,-0.024719238,-37.671875,0.171875,0.34375
1695813645023,0.9641113,-0.054992676,0.028015137,-28.84375,-3.359375,7.46875
1695813645062,0.9812012,-0.15679932,0.018005371,-19.078125,6.796875,5.078125
1695813645099,0.88671875,-0.40167236,-0.009094238,-37.25,4.140625,5.09375
1695813645137,0.8330078,-0.33648682,0.07684326,-38.203125,10.703125,5.234375
1695813645186,0.84106445,-0.13214111,0.089538574,-24.5,0.03125,0.578125
1695813645223,1.010498,-0.17266846,0.06781006,-2.515625,31.375,6.15625
1695813645262,1.2102051,-0.29595947,0.026550293,0.234375,22.953125,19.484375
1695813645299,1.520752,-0.4800415,-0.022766113,-8.859375,31.28125,18.15625
1695813645337,1.3869629,-0.44195557,-0.2210083,-10.75,0.546875,12.140625
1695813645373,1.498291,0.019958496,-0.517395,22.140625,5.21875,5.25
1695813645423,1.2116699,0.36224365,-0.3867798,-30.78125,1.3125,9.3125
1695813645463,0.6323242,0.15130615,-0.28302002,-19.015625,10.234375,12.671875
1695813645498,0.60961914,0.109802246,-0.27911377,-12.0625,-0.171875,-1.15625
1695813645536,1.005127,0.06707764,-0.11236572,2.921875,-1.484375,2.78125
1695813645574,0.98583984,4.272461E-4,-0.18951416,-7.8125,-5.5,-4.703125
1695813645611,0.58740234,0.020446777,-0.10455322,-6.734375,-0.78125,2.21875
1695813645661,0.57592773,-0.020568848,-0.05279541,1.34375,1.5,10.609375
1695813645699,0.8059082,-0.03253174,-0.10284424,8.578125,10.140625,3.25
1695813645736,0.8876953,-0.039367676,-0.12701416,7.453125,0.578125,2.296875
1695813645773,0.84594727,-0.078186035,-0.11260986,13.640625,-9.765625,8.28125
1695813645811,0.9211426,-0.06744385,-0.09210205,-1.640625,-2.90625,7.34375
1695813645849,1.3095703,0.019714355,-0.09649658,-6.984375,6.484375,-0.40625
1695813645898,1.4267578,0.0446167,-0.006164551,-4.28125,-1.859375,-9.734375
1695813645936,1.1030273,0.20233154,-0.11505127,3.046875,-10.234375,-6.53125
1695813645973,1.3728027,0.18841553,-0.32769775,1.890625,5.1875,3.109375
1695813646011,1.4382324,-0.34649658,-0.35650635,-49.640625,15.171875,-11.671875
1695813646049,0.58691406,-0.50323486,-0.39630127,-50.796875,-6.328125,-32.15625
1695813646087,0.47729492,0.1461792,-0.21392822,-26.5625,5.75,-6.625
1695813646137,0.8413086,0.3156128,-0.105773926,-6.703125,14.5,11.90625
1695813646174,1.083252,0.03289795,-0.34136963,17.390625,15.0,3.296875
1695813646214,0.8496094,-0.24420166,-0.22808838,-19.109375,15.203125,6.296875
1695813646251,0.60009766,-0.07696533,-0.10357666,-6.140625,17.140625,17.234375
1695813646286,0.5852051,0.04071045,-0.16314697,-5.109375,8.546875,17.15625
1695813646325,0.69628906,-0.055725098,-0.21466064,5.140625,19.765625,10.75
1695813646372,0.97021484,-0.1638794,-0.24346924,4.28125,16.375,3.28125
1695813646411,1.1408691,-0.11114502,-0.28570557,8.96875,7.4375,1.890625
1695813646448,1.3486328,-0.033996582,-0.30596924,8.421875,9.109375,2.5
1695813646485,1.4758301,-0.113098145,-0.44683838,1.9375,-4.15625,8.53125
1695813646525,1.1899414,-0.16680908,-0.53326416,-7.71875,-14.09375,23.671875
1695813646559,1.2143555,0.07196045,-0.44659424,-3.140625,-14.15625,16.65625
1695813646610,0.8659668,0.5614624,-0.28277588,-10.921875,-7.328125,0.09375
1695813646650,0.47387695,0.27581787,-0.29864502,1.234375,-6.609375,6.4375
1695813646687,0.6296387,-0.042297363,-0.16363525,24.96875,-7.953125,7.234375
1695813646723,0.970459,1.8310547E-4,-0.2774048,9.859375,-5.6875,-6.296875
1695813646760,0.98046875,-0.070617676,-0.1897583,5.765625,3.21875,-10.265625
1695813646812,0.7807617,0.08660889,-0.20733643,-6.875,-2.296875,-0.296875
1695813646849,0.85131836,0.22406006,-0.13336182,-4.640625,0.296875,2.859375
1695813646886,0.9934082,0.05657959,-0.17071533,9.1875,2.328125,4.34375
1695813646925,1.0161133,-0.13531494,-0.18218994,-10.984375,1.015625,2.3125
1695813646961,0.97314453,-0.030334473,-0.21490479,-8.734375,0.515625,-0.109375
1695813646999,1.104248,0.20477295,-0.15924072,-12.84375,-6.046875,-2.46875
1695813647049,1.3254395,0.40057373,-0.13702393,-6.421875,2.671875,-5.8125
1695813647086,1.1049805,0.06903076,-0.4434204,27.78125,-10.359375,-8.96875
1695813647124,1.2246094,-0.06817627,-0.49761963,-22.6875,-0.421875,-4.640625
1695813647162,0.7192383,-0.14434814,-0.2822876,-35.53125,-13.375,0.03125
1695813647199,0.46655273,-0.2822876,-0.3538208,-26.3125,-9.875,-8.359375
1695813647236,0.7973633,0.11224365,-0.11187744,-22.765625,-3.796875,-14.234375
1695813647287,1.0717773,0.14959717,-0.042053223,7.84375,-16.0625,-3.90625
1695813647324,0.8005371,-0.018371582,-0.27520752,-12.640625,-10.625,6.90625
1695813647362,0.64624023,-0.08648682,-0.18170166,-12.5625,-11.578125,4.59375
1695813647399,0.6779785,-0.07574463,-0.10675049,1.03125,10.5,-4.59375
1695813647449,1.0874023,-0.014709473,-0.21026611,6.078125,16.890625,-5.265625
1695813647474,1.3054199,-0.026428223,-0.26031494,5.75,9.4375,-3.59375
1695813647528,1.0966797,0.23773193,-0.33233643,44.421875,-16.28125,-1.46875
1695813647564,1.5065918,0.08416748,0.1461792,41.203125,8.53125,1.84375
1695813647599,1.2924805,-0.3106079,-0.43218994,-32.046875,7.3125,22.65625
1695813647636,1.0693359,-0.10089111,-0.4199829,27.5,-14.8125,14.9375
1695813647674,0.66674805,0.5465698,-0.26837158,-9.734375,-12.171875,-4.0625
1695813647715,0.54907227,0.27191162,-0.22320557,-1.375,-0.09375,-6.109375
1695813647802,0.8515625,-0.121398926,-0.11846924,6.96875,2.0,7.609375
1695813647806,0.9165039,0.00579834,-0.14654541,6.109375,-15.09375,0.640625
1695813647838,0.736084,0.17889404,-0.13946533,31.734375,11.984375,-1.59375
1695813647873,0.73461914,0.18157959,-0.0256958,1.6875,17.390625,10.28125
1695813647911,1.0532227,-0.07720947,-0.08062744,8.40625,9.65625,8.765625
1695813647950,1.220459,-0.09283447,-0.25323486,11.65625,-2.953125,1.09375
1695813647999,0.9621582,0.18841553,-0.12408447,-1.125,4.546875,-3.375
1695813648037,0.9243164,0.08660889,-0.08355713,-1.015625,16.21875,3.46875
1695813648074,1.2097168,-0.024963379,-0.13604736,-11.0,4.703125,-3.4375
1695813648116,1.137207,0.2387085,-0.2962036,15.328125,-5.609375,-11.453125
1695813648150,1.1516113,0.17816162,-0.43145752,7.0625,-4.671875,-4.53125
1695813648187,0.8769531,0.1828003,-0.3057251,-43.203125,-16.671875,-2.640625
1695813648236,0.5673828,-0.32403564,-0.46759033,0.765625,-4.015625,1.40625
1695813648274,0.8234863,-0.051574707,-0.25372314,-27.921875,18.6875,-10.859375
1695813648314,1.2028809,0.14715576,-0.117004395,-26.5625,-5.203125,-1.984375
1695813648349,0.8625488,0.1071167,-0.077697754,-29.953125,-0.59375,7.4375
1695813648386,0.49414062,0.024841309,-0.32037354,-19.265625,-2.046875,6.296875
1695813648424,0.58447266,-0.1482544,-0.22930908,-1.59375,13.328125,3.875
1695813648475,0.96899414,-0.13189697,-0.2901001,-1.609375,21.234375,0.125
1695813648512,1.331543,0.1461792,-0.253479,-9.953125,7.015625,-4.859375
1695813648550,1.1586914,0.12030029,-0.23199463,-1.140625,2.671875,3.53125
1695813648587,1.1618652,-0.08282471,-0.4241333,7.4375,-8.921875,5.34375
1695813648624,1.1486816,-0.10748291,-0.42022705,10.625,-17.421875,-3.984375
1695813648663,1.2302246,-0.06329346,-0.585022,1.625,-23.125,4.640625
1695813648711,1.1040039,0.7255249,-0.11968994,9.5,-18.8125,2.015625
1695813648749,0.70043945,0.32196045,-0.13775635,6.703125,-11.828125,2.96875
1695813648787,0.53125,-0.0647583,-0.13214111,17.84375,-11.921875,3.609375
1695813648824,0.8461914,-0.07891846,-0.16485596,22.265625,1.03125,-1.671875
1695813648862,1.0246582,0.06512451,-0.07183838,2.875,-11.8125,-9.125
1695813648899,0.8171387,0.03338623,-0.034973145,13.390625,-2.609375,-14.015625
1695813648949,0.6345215,0.04119873,-0.09307861,2.5625,-11.671875,-3.359375
1695813648987,0.814209,0.020446777,-0.074035645,26.28125,-5.09375,3.1875
1695813649022,1.246582,0.06903076,-0.081848145,1.40625,25.03125,6.375
1695813649061,1.3925781,-0.02935791,-0.061340332,-6.84375,8.203125,1.390625
1695813649100,1.1010742,-0.041809082,-0.109191895,-11.671875,-6.953125,-8.71875
1695813649136,0.96899414,0.028259277,-0.11968994,-19.390625,-1.921875,-10.6875
1695813649188,1.2651367,0.19354248,-0.34576416,18.046875,-16.40625,-1.921875
1695813649226,1.0964355,0.11004639,-0.1350708,-44.1875,5.34375,-1.375
1695813649261,0.71240234,-0.33111572,-0.3772583,-34.421875,-9.125,-7.109375
1695813649298,0.58813477,-0.18609619,-0.24810791,-30.8125,3.375,-16.625
1695813649336,0.95703125,0.05657959,-0.1638794,-17.921875,4.4375,2.5
1695813649373,0.98413086,0.026794434,-0.081848145,-16.4375,6.75,4.390625
1695813649424,0.7270508,-0.12286377,-0.10870361,-24.3125,3.625,3.21875
1695813649474,0.66796875,-0.061584473,-0.10723877,-19.140625,-6.640625,7.0
1695813649499,0.7470703,-0.066467285,-0.17681885,-4.46875,15.484375,1.46875
1695813649537,0.9873047,-0.17510986,-0.21759033,-4.390625,24.421875,-0.5625
1695813649574,1.0822754,-0.039367676,-0.128479,-17.53125,14.890625,8.359375
1695813649611,1.0864258,-0.27764893,-0.28204346,3.453125,28.4375,7.515625
1695813649661,1.1696777,-0.26739502,-0.33892822,-6.921875,9.234375,14.453125
1695813649700,1.3537598,-0.15704346,-0.4439087,-1.484375,-2.546875,20.59375
1695813649738,1.3491211,0.06463623,-0.5667114,-1.5625,-19.375,5.890625
1695813649773,1.1936035,0.6166382,-0.2300415,-29.390625,-19.84375,0.828125
1695813649811,0.70336914,0.23187256,-0.25543213,-5.96875,-21.203125,11.234375
1695813649849,0.48388672,-0.01763916,-0.27642822,-6.71875,-12.84375,2.84375
1695813649900,0.8444824,-0.054260254,-0.14678955,5.46875,-4.96875,-1.515625
1695813649937,1.0964355,0.09295654,-0.14849854,-17.375,-16.484375,-7.75
1695813649974,0.7180176,0.070495605,-0.11090088,-9.640625,-7.671875,-12.109375
1695813650012,0.57958984,0.013122559,-0.09088135,-10.3125,-9.296875,-2.1875
1695813650049,0.7902832,-0.049865723,-0.09503174,-9.1875,-6.984375,-0.875
1695813650088,0.89331055,-0.08135986,-0.04425049,-15.421875,-4.234375,-1.75
1695813650137,0.9223633,-0.08087158,0.0289917,-21.1875,-6.234375,-2.46875
1695813650176,0.89819336,-0.08721924,0.1161499,-25.5,-9.09375,-4.046875
1695813650211,0.9890137,-0.2498169,0.09442139,-37.40625,-3.890625,-3.4375
1695813650249,1.1003418,-0.22784424,-0.009094238,-47.375,-12.109375,-21.40625
1695813650287,0.88305664,-0.19244385,0.07489014,-51.671875,-28.8125,-30.15625
1695813650323,0.795166,-0.08502197,-0.04522705,-29.828125,-16.109375,-19.34375
1695813650373,1.2744141,-0.057922363,-0.33111572,-16.015625,18.078125,-3.78125
1695813650414,1.2470703,-0.0869751,-0.20367432,-74.140625,-2.75,-0.5
1695813650449,0.85058594,-0.23101807,-0.29107666,-55.953125,-2.609375,-5.734375
1695813650486,0.892334,-0.105285645,-0.2559204,-25.0,6.46875,-9.625
1695813650524,1.2770996,-0.20050049,0.14398193,-37.765625,7.796875,11.375
1695813650562,1.0961914,-0.32159424,-0.009338379,-40.609375,3.140625,-7.46875
1695813650612,0.6894531,-0.25836182,-0.003479004,-53.640625,-6.90625,0.671875
1695813650648,0.58496094,-0.13238525,-0.055480957,-23.421875,2.140625,12.609375
1695813650698,0.8479004,-0.065979004,0.018493652,-13.46875,11.625,11.078125
1695813650723,1.0131836,-0.27789307,0.03363037,-12.4375,32.515625,10.203125
1695813650761,0.95458984,-0.4133911,-0.05279541,-21.203125,18.703125,13.953125
1695813650812,1.0612793,-0.3110962,0.010681152,-12.84375,17.71875,10.046875
1695813650848,1.4174805,-0.15826416,-0.1404419,-0.875,11.75,9.78125
1695813650886,1.182373,-0.16217041,-0.1609497,-15.546875,5.0625,20.9375
1695813650923,1.298584,-0.07159424,-0.3381958,3.359375,-5.875,32.59375
1695813650960,1.3959961,0.1539917,-0.32159424,5.234375,-6.40625,9.359375
1695813650999,0.8125,0.24945068,-0.1531372,-50.0,10.0625,9.265625
1695813651049,0.58935547,0.09637451,-0.34429932,-10.171875,2.96875,9.921875
1695813651087,0.77612305,0.18865967,-0.14190674,-3.453125,4.421875,1.390625
1695813651125,1.097168,0.10003662,-0.07965088,-4.4375,1.609375,3.046875
1695813651161,0.95532227,0.035339355,-0.15411377,9.90625,-1.03125,-0.890625
1695813651199,0.6152344,0.073913574,-0.13922119,10.78125,9.65625,1.1875
1695813651236,0.7919922,0.010681152,-0.06793213,8.609375,-0.96875,4.640625
1695813651324,0.97314453,0.028015137,-0.13873291,3.125,-7.234375,1.953125
1695813651326,0.95825195,0.024841309,-0.061340332,-4.40625,-2.65625,4.8125
1695813651360,1.0422363,0.009216309,-0.085510254,-16.65625,-0.421875,5.453125
1695813651401,1.2141113,0.08099365,-0.0017700195,-21.53125,5.21875,0.765625
1695813651436,1.2243652,0.15081787,0.039489746,-13.109375,-1.578125,-8.0
1695813651473,1.0810547,0.14447021,-0.14434814,-6.703125,1.75,-10.40625
1695813651523,1.144043,0.112976074,-0.3008423,13.484375,3.0,0.15625
1695813651562,1.4152832,0.1786499,-0.30596924,-49.03125,12.140625,-0.734375
1695813651612,0.6921387,-0.45343018,-0.27423096,-53.984375,-8.9375,-3.84375
1695813651638,0.37060547,-0.22515869,-0.34283447,-43.15625,-19.5625,-18.515625
1695813651674,0.74487305,0.26898193,-0.12237549,-16.6875,-10.671875,-10.03125
1695813651718,1.2160645,0.18426514,-0.11553955,-10.625,-2.90625,-0.421875
