,timestamp,accel_x,accel_y,accel_z,gyro_x,gyro_y,gyro_z
0,1695728700786,-0.40942383,-0.8435669,0.49139404,6.71875,13.765625,-5.734375
1,1695728700826,-0.48242188,-0.87823486,0.39886475,10.46875,7.6875,2.6875
2,1695728700866,-0.42236328,-0.9006958,0.3258667,-2.046875,13.703125,-4.859375
3,1695728700907,-0.3791504,-0.9194946,0.39349365,10.984375,1.546875,2.734375
4,1695728700947,-0.41430664,-0.8591919,0.35198975,5.296875,3.796875,5.328125
5,1695728700986,-0.41723633,-0.8933716,0.3378296,10.453125,3.4375,3.34375
6,1695728701026,-0.41259766,-0.9204712,0.3390503,6.125,1.59375,3.84375
7,1695728701067,-0.37524414,-0.9277954,0.27557373,8.328125,0.078125,5.296875
8,1695728701106,-0.3400879,-0.88897705,0.27630615,5.921875,-4.03125,3.703125
9,1695728701146,-0.27954102,-0.89923096,0.24334717,-1.96875,-8.09375,1.578125
10,1695728701186,-0.3400879,-0.9109497,0.27923584,5.25,-21.28125,6.40625
11,1695728701227,-0.42822266,-0.99298096,0.3427124,4.171875,-10.671875,6.109375
12,1695728701267,-0.37670898,-0.9944458,0.33050537,-17.359375,2.515625,-9.234375
13,1695728701307,-0.34960938,-0.91070557,0.28167725,-5.390625,3.59375,-10.28125
14,1695728701346,-0.3876953,-0.87701416,0.3114624,-10.953125,4.390625,-4.578125
15,1695728701386,-0.41235352,-0.89141846,0.36590576,-13.1875,0.8125,-5.96875
16,1695728701426,-0.42407227,-0.9019165,0.37225342,-14.875,2.109375,-8.328125
17,1695728701466,-0.46777344,-0.8713989,0.3756714,-8.109375,3.078125,-5.171875
18,1695728701507,-0.42822266,-0.8648071,0.40985107,-5.8125,4.046875,-4.296875
19,1695728701546,-0.44799805,-0.85723877,0.42596436,1.203125,4.796875,-0.734375
20,1695728701586,-0.4663086,-0.8748169,0.43792725,14.796875,10.9375,0.4375
21,1695728701627,-0.44091797,-0.92559814,0.37493896,21.203125,10.25,1.96875
22,1695728701668,-0.4169922,-0.8921509,0.29803467,6.0625,2.859375,1.125
23,1695728701707,-0.38256836,-0.88653564,0.33587646,14.703125,1.4375,0.96875
24,1695728701748,-0.40966797,-0.9204712,0.29437256,4.328125,1.34375,5.90625
25,1695728701767,-0.40673828,-0.8665161,0.29241943,6.0,0.546875,5.6875
26,1695728701808,-0.35498047,-0.97198486,0.24700928,5.375,-4.484375,1.390625
27,1695728701849,-0.3330078,-0.8970337,0.23846436,4.03125,-5.28125,3.109375
28,1695728701888,-0.33032227,-0.87506104,0.2321167,14.125,-18.0625,3.265625
29,1695728701929,-0.4255371,-0.96466064,0.31756592,-5.9375,-14.25,4.890625
30,1695728701969,-0.46850586,-0.94610596,0.3053589,-22.203125,0.375,-4.875
31,1695728702009,-0.38085938,-0.95269775,0.28582764,-6.578125,7.21875,-10.078125
32,1695728702049,-0.37719727,-0.9180298,0.30291748,-13.90625,4.5625,-6.265625
33,1695728702088,-0.42016602,-0.83380127,0.35125732,-15.328125,7.640625,-6.546875
34,1695728702131,-0.46801758,-0.8567505,0.37615967,-7.21875,3.109375,-3.984375
35,1695728702168,-0.44750977,-0.87945557,0.41864014,-5.71875,8.25,-2.15625
36,1695728702208,-0.48120117,-0.8838501,0.4376831,22.625,12.421875,3.046875
37,1695728702248,-0.47680664,-0.9187622,0.29510498,18.5,11.265625,6.578125
38,1695728702288,-0.42114258,-0.8843384,0.30804443,13.546875,2.59375,3.421875
39,1695728702330,-0.34106445,-0.9314575,0.27752686,20.03125,6.9375,2.421875
40,1695728702368,-0.38232422,-0.9221802,0.24163818,8.609375,1.59375,9.671875
41,1695728702408,-0.3815918,-0.9126587,0.25823975,-2.71875,-0.59375,1.6875
42,1695728702449,-0.36450195,-0.9631958,0.24456787,6.953125,-1.984375,0.875
43,1695728702488,-0.32836914,-0.93463135,0.2062378,3.234375,-2.734375,5.0625
44,1695728702528,-0.3005371,-0.8999634,0.20965576,-2.984375,-3.0,-1.015625
45,1695728702568,-0.34838867,-0.9446411,0.215271,-9.359375,-8.578125,-1.546875
46,1695728702609,-0.39501953,-0.927063,0.3036499,-16.53125,-11.125,0.703125
47,1695728702649,-0.45751953,-0.90045166,0.38397217,-14.484375,-7.125,-1.78125
48,1695728702688,-0.42285156,-0.9417114,0.29364014,-29.375,1.625,-9.03125
49,1695728702729,-0.37329102,-0.90460205,0.33050537,-5.375,2.90625,-12.0625
50,1695728702769,-0.41503906,-0.8989868,0.39276123,-8.09375,4.265625,-1.453125
51,1695728702807,-0.4753418,-0.8452759,0.36419678,-7.265625,2.90625,-1.453125
52,1695728702856,-0.42529297,-0.87628174,0.38690186,-2.828125,1.734375,-4.90625
53,1695728702887,-0.45263672,-0.88775635,0.3756714,-2.03125,4.203125,0.53125
54,1695728702928,-0.4753418,-0.8652954,0.38885498,10.78125,5.71875,3.515625
55,1695728702967,-0.42016602,-0.89434814,0.3842163,17.265625,11.421875,1.703125
56,1695728703007,-0.42944336,-0.94488525,0.29534912,19.78125,3.28125,6.703125
57,1695728703048,-0.39453125,-0.8982544,0.29412842,11.234375,5.734375,1.171875
58,1695728703067,-0.3515625,-0.90289307,0.28338623,14.453125,-1.34375,4.6875
59,1695728703112,-0.38085938,-0.9121704,0.26556396,5.609375,-0.25,6.65625
60,1695728703147,-0.37841797,-0.9302368,0.24627686,8.53125,-1.171875,3.796875
61,1695728703200,-0.35058594,-0.94854736,0.20599365,2.640625,-5.234375,3.890625
62,1695728703226,-0.29956055,-0.91973877,0.21185303,0.734375,-2.75,-1.046875
63,1695728703266,-0.35327148,-0.9155884,0.24285889,3.75,-10.296875,3.34375
64,1695728703307,-0.4326172,-0.91119385,0.24383545,-16.328125,-13.859375,5.90625
65,1695728703346,-0.40283203,-0.9636841,0.30267334,-19.296875,2.0,-8.421875
66,1695728703387,-0.36279297,-0.9800415,0.307312,-11.296875,3.46875,-9.25
67,1695728703427,-0.3864746,-0.90509033,0.31781006,-6.125,4.078125,-3.703125
68,1695728703470,-0.4375,-0.84161377,0.31781006,-11.4375,1.625,-3.015625
69,1695728703507,-0.42944336,-0.8892212,0.3468628,-8.84375,3.671875,-4.46875
70,1695728703547,-0.44506836,-0.91729736,0.36419678,-13.859375,1.578125,-3.0625
71,1695728703588,-0.43115234,-0.8731079,0.36444092,-1.03125,0.859375,-0.765625
72,1695728703628,-0.43066406,-0.9067993,0.32318115,0.34375,4.140625,1.125
73,1695728703667,-0.4013672,-0.8621216,0.39056396,9.1875,9.5625,-1.640625
74,1695728703713,-0.44799805,-0.92681885,0.34613037,23.671875,2.90625,8.953125
75,1695728703748,-0.39916992,-0.9505005,0.2838745,3.953125,7.0,2.203125
76,1695728703789,-0.37036133,-0.95806885,0.28729248,22.03125,-4.875,2.859375
77,1695728703828,-0.39233398,-0.8867798,0.26068115,-7.0,1.671875,0.9375
78,1695728703868,-0.36621094,-0.9043579,0.2633667,7.421875,-2.046875,1.046875
79,1695728703909,-0.3581543,-0.97442627,0.24407959,0.09375,-7.59375,3.890625
80,1695728703948,-0.34179688,-0.9143677,0.2177124,7.9375,-6.125,2.453125
81,1695728703988,-0.4025879,-0.9158325,0.2531128,9.8125,-16.296875,6.203125
82,1695728704028,-0.375,-0.92559814,0.28753662,-12.46875,-8.59375,2.09375
83,1695728704067,-0.39575195,-0.95635986,0.26605225,-21.59375,-1.578125,-5.578125
84,1695728704107,-0.42651367,-0.9561157,0.29315186,-10.125,4.109375,-8.953125
85,1695728704147,-0.39282227,-0.9312134,0.29534912,-5.390625,3.28125,-2.65625
86,1695728704188,-0.40576172,-0.83380127,0.32196045,-9.859375,2.515625,-1.59375
87,1695728704228,-0.42797852,-0.9175415,0.31854248,-10.390625,3.359375,-4.9375
88,1695728704266,-0.4338379,-0.9216919,0.34100342,-10.421875,3.625,-4.359375
89,1695728704306,-0.4345703,-0.878479,0.3529663,-3.734375,5.203125,-1.71875
90,1695728704347,-0.43847656,-0.8713989,0.36566162,-1.421875,2.515625,1.5625
91,1695728704366,-0.4255371,-0.89141846,0.3397827,-0.09375,6.359375,2.0625
92,1695728704408,-0.3955078,-0.9146118,0.36712646,10.515625,11.421875,0.4375
93,1695728704449,-0.38745117,-0.9463501,0.3583374,18.8125,12.296875,5.296875
94,1695728704490,-0.4309082,-0.8936157,0.29510498,-2.03125,12.453125,1.625
95,1695728704528,-0.3630371,-0.8723755,0.35394287,18.484375,-1.59375,-0.53125
96,1695728704570,-0.35058594,-0.9846802,0.27215576,-2.21875,2.34375,6.71875
97,1695728704608,-0.37353516,-0.881897,0.2645874,2.546875,-1.265625,0.78125
98,1695728704649,-0.3708496,-0.9307251,0.30828857,13.28125,-5.25,2.5
99,1695728704688,-0.3371582,-0.9487915,0.215271,-1.15625,-10.59375,5.640625
100,1695728704729,-0.3466797,-0.8989868,0.26239014,4.390625,-15.609375,1.65625
101,1695728704768,-0.38989258,-0.9133911,0.30096436,-7.40625,-16.734375,1.609375
102,1695728704808,-0.38842773,-0.9631958,0.29437256,-18.5,1.859375,-5.171875
103,1695728704848,-0.45458984,-0.90631104,0.32733154,-3.359375,1.6875,-6.25
104,1695728704889,-0.3881836,-0.9456177,0.33172607,-5.859375,3.75,-0.359375
105,1695728704928,-0.375,-0.8821411,0.3126831,-16.390625,2.828125,-2.453125
106,1695728704967,-0.42285156,-0.9031372,0.324646,-3.078125,2.015625,-4.390625
107,1695728705007,-0.41210938,-0.90045166,0.3703003,-11.5,5.375,-3.953125
108,1695728705046,-0.4230957,-0.8804321,0.33026123,-5.3125,0.28125,-1.296875
109,1695728705087,-0.39941406,-0.8921509,0.34344482,-2.328125,2.15625,-1.109375
110,1695728705128,-0.4177246,-0.8682251,0.38861084,5.03125,7.84375,0.671875
111,1695728705169,-0.43725586,-0.91778564,0.34246826,14.625,11.015625,6.15625
112,1695728705208,-0.4111328,-0.9319458,0.33831787,16.90625,14.265625,3.6875
113,1695728705248,-0.3334961,-0.9561157,0.3060913,33.296875,12.578125,0.71875
114,1695728705290,-0.3630371,-0.9216919,0.23895264,13.046875,-0.375,8.0625
115,1695728705329,-0.36572266,-0.88897705,0.2843628,9.5625,2.734375,1.4375
116,1695728705367,-0.39208984,-0.99346924,0.22576904,7.75,-0.296875,1.6875
117,1695728705408,-0.36254883,-0.9221802,0.1786499,4.1875,-3.609375,4.03125
118,1695728705448,-0.2915039,-0.9404907,0.1708374,4.171875,-6.609375,0.84375
119,1695728705489,-0.32080078,-0.9248657,0.22137451,1.71875,-11.5625,0.140625
120,1695728705528,-0.40356445,-0.9627075,0.27972412,-8.421875,-15.296875,2.515625
121,1695728705568,-0.42822266,-0.9212036,0.24212646,-31.359375,-4.59375,-6.34375
122,1695728705609,-0.36010742,-0.9944458,0.2736206,-6.234375,5.78125,-8.859375
123,1695728705648,-0.36938477,-0.91851807,0.30047607,-16.359375,3.453125,-4.109375
124,1695728705667,-0.40234375,-0.86187744,0.30340576,-6.046875,2.546875,-3.453125
125,1695728705708,-0.42504883,-0.8953247,0.324646,-17.1875,3.828125,-6.328125
126,1695728705746,-0.42797852,-0.90631104,0.36590576,-10.8125,3.328125,-3.296875
127,1695728705786,-0.4182129,-0.9065552,0.33465576,-8.359375,-0.28125,-0.625
128,1695728705826,-0.41308594,-0.86383057,0.36639404,3.03125,4.109375,-1.109375
129,1695728705866,-0.43701172,-0.87677,0.3685913,7.84375,6.578125,3.453125
130,1695728705909,-0.41625977,-0.9011841,0.3475952,19.328125,8.21875,4.6875
131,1695728705948,-0.43066406,-0.97125244,0.2814331,5.078125,6.5625,4.5
132,1695728705988,-0.36401367,-0.9248657,0.29656982,15.28125,8.296875,1.171875
133,1695728706027,-0.33642578,-0.92510986,0.29144287,15.8125,1.328125,6.953125
134,1695728706067,-0.35766602,-0.9338989,0.23504639,11.921875,-2.9375,6.5625
135,1695728706106,-0.39379883,-0.954895,0.24407959,-4.71875,-2.546875,0.5625
136,1695728706146,-0.33813477,-0.9212036,0.24359131,-2.359375,-6.5625,1.5625
137,1695728706186,-0.32739258,-0.9500122,0.20184326,2.140625,-13.640625,5.03125
138,1695728706227,-0.3630371,-0.94659424,0.18548584,-3.109375,-12.640625,3.171875
139,1695728706268,-0.36889648,-0.90753174,0.26483154,-20.734375,-6.109375,-3.984375
140,1695728706308,-0.37768555,-0.9819946,0.34832764,-15.53125,1.546875,-7.46875
141,1695728706347,-0.40307617,-0.9685669,0.30047607,-6.640625,2.5,-5.625
142,1695728706388,-0.3857422,-0.894104,0.3102417,-5.671875,4.359375,-2.578125
143,1695728706427,-0.40112305,-0.8711548,0.32635498,-15.296875,1.65625,-4.015625
144,1695728706468,-0.42114258,-0.9212036,0.34100342,-11.5625,3.234375,-5.6875
145,1695728706508,-0.4182129,-0.9102173,0.3607788,-9.203125,2.09375,-3.203125
146,1695728706546,-0.4194336,-0.8609009,0.36541748,-0.03125,2.171875,-0.625
147,1695728706587,-0.39990234,-0.8987427,0.355896,5.859375,1.296875,2.6875
148,1695728706627,-0.3947754,-0.88726807,0.35809326,-3.25,6.28125,1.46875
149,1695728706666,-0.4272461,-0.88848877,0.38812256,15.046875,5.28125,4.171875
150,1695728706706,-0.43188477,-0.93829346,0.309021,14.59375,4.53125,7.75
151,1695728706747,-0.37109375,-0.92144775,0.31365967,22.84375,14.125,3.703125
152,1695728706788,-0.36791992,-0.9697876,0.27581787,20.015625,5.953125,3.21875
153,1695728706828,-0.35595703,-0.89849854,0.20892334,6.046875,2.484375,7.359375
154,1695728706868,-0.30151367,-0.90167236,0.22991943,9.234375,5.046875,-0.296875
155,1695728706908,-0.31030273,-1.045227,0.23773193,3.3125,-10.1875,3.8125
156,1695728706947,-0.34375,-0.911438,0.15887451,0.09375,-13.796875,3.625
157,1695728706966,-0.3293457,-0.91412354,0.22381592,-6.125,-14.65625,-0.078125
158,1695728707021,-0.35742188,-0.9727173,0.31903076,-24.484375,-6.09375,-2.203125
159,1695728707046,-0.39794922,-0.93218994,0.2633667,-19.453125,-0.90625,-8.0625
160,1695728707087,-0.36547852,-0.97052,0.31072998,-5.6875,5.671875,-8.859375
161,1695728707127,-0.37475586,-0.90216064,0.32781982,-10.5,1.828125,-2.703125
162,1695728707169,-0.39770508,-0.8567505,0.31292725,-12.375,2.625,-4.9375
163,1695728707208,-0.4152832,-0.91534424,0.35150146,-11.390625,4.4375,-5.90625
164,1695728707248,-0.43237305,-0.90802,0.3637085,-9.171875,1.609375,-2.390625
165,1695728707290,-0.4399414,-0.8916626,0.3776245,-12.265625,2.21875,-2.984375
166,1695728707328,-0.43920898,-0.8574829,0.40350342,-25.03125,2.0625,-4.9375
167,1695728707368,-0.38061523,-0.8796997,0.39569092,7.703125,6.453125,-1.28125
168,1695728707411,-0.40112305,-0.89727783,0.42694092,20.0,12.28125,3.59375
169,1695728707449,-0.42285156,-0.89849854,0.35491943,25.546875,3.953125,9.84375
170,1695728707488,-0.3474121,-0.9365845,0.2946167,10.15625,15.71875,0.046875
171,1695728707530,-0.35791016,-0.9204712,0.37176514,17.28125,-2.390625,2.6875
172,1695728707566,-0.40039062,-0.9397583,0.24285889,-4.984375,-0.8125,3.90625
173,1695728707611,-0.32543945,-0.9258423,0.2850952,6.4375,-1.8125,1.328125
174,1695728707646,-0.32104492,-0.91729736,0.277771,-7.1875,-8.125,-0.859375
175,1695728707687,-0.39819336,-0.9299927,0.307312,-5.5,-14.328125,3.21875
176,1695728707728,-0.4008789,-0.91241455,0.4105835,-26.390625,-8.375,-6.296875
177,1695728707768,-0.3930664,-0.95025635,0.36175537,-12.1875,-3.03125,-11.4375
178,1695728707810,-0.43823242,-0.8826294,0.35394287,-11.703125,1.0625,-8.453125
179,1695728707848,-0.41333008,-0.81695557,0.3859253,-15.6875,-1.0625,-4.765625
180,1695728707887,-0.43286133,-0.8411255,0.40985107,-9.203125,-0.03125,-4.375
181,1695728707929,-0.45166016,-0.8875122,0.4298706,-9.359375,0.53125,-5.453125
182,1695728707969,-0.43920898,-0.88653564,0.42279053,-4.859375,1.890625,-4.734375
183,1695728708009,-0.4597168,-0.83551025,0.4225464,-3.21875,2.703125,-2.859375
184,1695728708047,-0.45141602,-0.7979126,0.4076538,4.390625,2.609375,0.296875
185,1695728708087,-0.45751953,-0.84942627,0.43719482,3.78125,5.53125,5.234375
186,1695728708130,-0.46923828,-0.8640747,0.4484253,27.859375,16.578125,6.046875
187,1695728708169,-0.4501953,-0.9595337,0.33050537,29.078125,11.4375,7.03125
188,1695728708208,-0.33374023,-0.9053345,0.3624878,16.625,10.140625,4.734375
189,1695728708249,-0.32617188,-0.9121704,0.32440186,19.234375,-4.109375,5.828125
190,1695728708267,-0.44482422,-0.8948364,0.29266357,12.890625,2.109375,1.0
191,1695728708307,-0.42822266,-0.9492798,0.21453857,5.984375,0.921875,3.765625
192,1695728708347,-0.32226562,-0.92071533,0.2531128,-1.25,-2.796875,1.921875
193,1695728708387,-0.33813477,-0.9390259,0.22283936,3.765625,-8.203125,1.9375
194,1695728708427,-0.39282227,-0.9314575,0.24993896,3.078125,-17.796875,1.671875
195,1695728708467,-0.4008789,-0.9338989,0.34344482,-11.40625,-15.828125,-0.65625
196,1695728708507,-0.43579102,-0.88409424,0.29974365,-26.15625,-4.640625,-8.796875
197,1695728708547,-0.41601562,-0.9402466,0.3204956,-0.609375,2.515625,-10.453125
198,1695728708587,-0.41088867,-0.9104614,0.33294678,-14.953125,2.21875,-1.984375
199,1695728708628,-0.4284668,-0.82647705,0.3270874,-9.765625,-0.015625,-4.90625
200,1695728708667,-0.4086914,-0.93878174,0.36346436,-11.0625,3.921875,-6.140625
201,1695728708707,-0.47802734,-0.8921509,0.37054443,-10.4375,3.328125,-4.1875
202,1695728708748,-0.4794922,-0.8447876,0.3607788,-3.046875,2.671875,-0.59375
203,1695728708788,-0.44335938,-0.85528564,0.36297607,6.609375,7.390625,1.921875
204,1695728708829,-0.4453125,-0.87506104,0.39031982,18.609375,13.59375,3.890625
205,1695728708867,-0.47729492,-0.9368286,0.30194092,14.484375,16.34375,6.03125
206,1695728708909,-0.4099121,-0.9326782,0.36883545,41.953125,26.3125,-0.375
207,1695728708947,-0.40454102,-0.92755127,0.28411865,27.625,4.828125,6.65625
208,1695728708987,-0.28564453,-0.8389282,0.19793701,-3.078125,4.03125,-1.5625
209,1695728709028,-0.3605957,-0.89678955,0.29608154,19.046875,-9.328125,3.296875
210,1695728709067,-0.44506836,-0.9866333,0.17059326,-5.703125,-5.75,4.5
211,1695728709107,-0.33935547,-0.92633057,0.15863037,-2.515625,-4.765625,-0.640625
212,1695728709147,-0.31445312,-0.9788208,0.17913818,-7.984375,-15.203125,-1.6875
213,1695728709186,-0.41064453,-0.93878174,0.16790771,-29.125,-12.8125,-8.140625
214,1695728709226,-0.46655273,-0.94903564,0.41766357,-10.71875,-5.765625,-14.46875
215,1695728709266,-0.47875977,-0.90338135,0.3131714,-21.296875,-9.515625,-8.640625
216,1695728709307,-0.44555664,-0.78497314,0.26434326,-12.640625,3.78125,-9.359375
217,1695728709347,-0.48046875,-0.85406494,0.37225342,-7.359375,-3.703125,-2.890625
218,1695728709387,-0.48999023,-0.88653564,0.36102295,-23.21875,2.671875,-4.921875
219,1695728709428,-0.4880371,-0.8909302,0.3480835,-7.859375,1.6875,-4.015625
220,1695728709467,-0.4663086,-0.8467407,0.40496826,-4.421875,4.515625,-1.78125
221,1695728709512,-0.49487305,-0.8086548,0.38690186,3.46875,6.46875,2.703125
222,1695728709548,-0.49023438,-0.85650635,0.371521,8.46875,16.65625,4.203125
223,1695728709566,-0.5275879,-0.97979736,0.4328003,82.03125,27.546875,18.609375
224,1695728709607,-0.45776367,-1.0120239,0.22064209,33.75,15.234375,21.265625
225,1695728709648,-0.3791504,-0.70098877,0.1786499,-2.375,8.515625,18.1875
226,1695728709691,-0.2915039,-0.85528564,0.21990967,12.140625,-2.96875,1.3125
227,1695728709728,-0.34423828,-1.1004028,0.28118896,-6.5,-1.90625,2.234375
228,1695728709768,-0.36743164,-0.9915161,0.22454834,-2.234375,-2.015625,0.609375
229,1695728709810,-0.3239746,-0.9006958,0.20233154,-0.359375,-2.734375,0.34375
230,1695728709848,-0.3125,-0.93536377,0.23040771,-0.609375,-5.828125,3.171875
231,1695728709891,-0.34838867,-0.9536743,0.17034912,-2.53125,-5.8125,2.46875
232,1695728709928,-0.32226562,-0.95684814,0.19256592,-10.265625,-16.765625,2.390625
233,1695728709968,-0.3815918,-0.96295166,0.32196045,-30.578125,-14.03125,-3.40625
234,1695728710008,-0.45703125,-0.8760376,0.31243896,-31.609375,-7.375,-15.609375
235,1695728710047,-0.42993164,-0.9319458,0.33538818,-2.140625,0.453125,-8.03125
236,1695728710091,-0.43017578,-0.86138916,0.35394287,-24.859375,0.65625,-1.859375
237,1695728710137,-0.40551758,-0.895813,0.36663818,-2.53125,2.875,-3.5
238,1695728710166,-0.41625977,-0.9168091,0.37054443,-14.5625,0.125,-3.578125
239,1695728710207,-0.44384766,-0.833313,0.3607788,-9.203125,3.21875,-2.1875
240,1695728710248,-0.4453125,-0.8711548,0.3866577,-4.3125,4.3125,-1.9375
241,1695728710286,-0.3959961,-0.880188,0.40960693,10.625,11.015625,1.1875
242,1695728710328,-0.43286133,-0.88775635,0.3619995,20.765625,5.21875,8.921875
243,1695728710368,-0.4025879,-0.91729736,0.3463745,23.796875,11.28125,7.234375
244,1695728710411,-0.38378906,-0.93096924,0.32196045,19.6875,10.9375,1.46875
245,1695728710447,-0.3618164,-0.925354,0.27459717,13.09375,1.9375,5.9375
246,1695728710489,-0.3857422,-0.9104614,0.2489624,8.859375,0.890625,2.75
247,1695728710528,-0.36694336,-0.97125244,0.23651123,9.859375,5.875,2.078125
248,1695728710569,-0.32788086,-0.9348755,0.15472412,3.359375,-11.21875,6.921875
249,1695728710610,-0.32543945,-0.89849854,0.23626709,2.125,-14.875,-0.78125
250,1695728710649,-0.39160156,-0.9937134,0.2975464,-19.34375,-21.40625,-1.90625
251,1695728710691,-0.39501953,-0.88482666,0.24432373,-30.421875,-9.234375,-7.125
252,1695728710729,-0.36157227,-0.94073486,0.34979248,-5.46875,-0.34375,-8.234375
253,1695728710769,-0.42114258,-0.95977783,0.29656982,-19.859375,2.453125,-8.0
254,1695728710811,-0.4165039,-0.86431885,0.340271,-0.71875,2.46875,-1.828125
255,1695728710846,-0.42089844,-0.8584595,0.34490967,-8.484375,3.734375,-1.640625
256,1695728710866,-0.4333496,-0.8850708,0.35980225,-5.921875,7.28125,-1.40625
257,1695728710906,-0.45166016,-0.913147,0.33709717,-9.453125,3.640625,-0.140625
258,1695728710947,-0.43041992,-0.8621216,0.35614014,-0.28125,4.71875,0.53125
259,1695728710987,-0.4111328,-0.8987427,0.37615967,10.265625,8.140625,3.234375
260,1695728711026,-0.41308594,-0.86968994,0.3505249,23.390625,11.796875,7.203125
261,1695728711067,-0.38964844,-0.9553833,0.25897217,19.96875,12.921875,7.59375
262,1695728711116,-0.34375,-0.9290161,0.3163452,15.203125,15.40625,1.8125
263,1695728711147,-0.33642578,-0.93707275,0.27972412,20.484375,3.15625,3.0
264,1695728711188,-0.39501953,-0.9480591,0.21600342,-5.578125,0.359375,6.734375
265,1695728711229,-0.30810547,-0.90460205,0.23846436,-1.328125,-1.40625,-0.015625
266,1695728711266,-0.34326172,-1.0256958,0.23431396,-0.609375,-10.625,1.0625
267,1695728711306,-0.34692383,-0.9324341,0.21453857,3.34375,-16.046875,2.6875
268,1695728711346,-0.38183594,-0.9302368,0.27923584,-14.09375,-28.96875,2.296875
269,1695728711387,-0.44677734,-0.8381958,0.28485107,-47.65625,-9.734375,-9.578125
270,1695728711432,-0.34814453,-1.019104,0.36029053,-2.78125,4.390625,-8.140625
271,1695728711467,-0.4111328,-0.91729736,0.35003662,-16.46875,2.765625,-5.265625
272,1695728711508,-0.38916016,-0.84698486,0.33929443,-1.03125,0.375,-0.453125
273,1695728711547,-0.3955078,-0.90704346,0.35321045,-14.265625,2.21875,-4.421875
274,1695728711588,-0.4177246,-0.85821533,0.39593506,-0.484375,6.90625,-1.359375
275,1695728711628,-0.42626953,-0.9221802,0.37420654,1.546875,6.375,3.828125
276,1695728711668,-0.39819336,-0.8862915,0.35150146,-11.890625,6.71875,0.25
277,1695728711708,-0.39379883,-0.8779907,0.38812256,7.265625,8.265625,-1.609375
278,1695728711747,-0.38134766,-0.89971924,0.40667725,29.8125,17.390625,4.265625
279,1695728711786,-0.38720703,-0.95758057,0.30096436,21.796875,13.890625,7.390625
280,1695728711828,-0.33618164,-0.927063,0.30462646,24.859375,7.984375,1.78125
281,1695728711868,-0.39038086,-0.9307251,0.24578857,20.09375,-0.609375,4.328125
282,1695728711910,-0.3203125,-0.93756104,0.22259521,2.625,3.796875,3.984375
283,1695728711947,-0.34448242,-0.96099854,0.23382568,5.8125,-2.109375,0.328125
284,1695728711987,-0.34301758,-0.9837036,0.17230225,-4.59375,-8.765625,-0.78125
285,1695728712029,-0.31958008,-0.9446411,0.21551514,-0.75,-15.0,-0.890625
286,1695728712067,-0.34326172,-0.9458618,0.3131714,-10.78125,-14.8125,-3.4375
287,1695728712117,-0.42993164,-0.8987427,0.25115967,-23.921875,-1.59375,-5.703125
288,1695728712148,-0.40551758,-0.8945923,0.31878662,-7.296875,-0.140625,-5.65625
289,1695728712168,-0.36376953,-0.97491455,0.33563232,-15.9375,4.125,-5.515625
290,1695728712208,-0.38354492,-0.8916626,0.33319092,-12.28125,0.171875,-5.046875
291,1695728712248,-0.4248047,-0.8674927,0.33099365,-11.3125,1.6875,-5.078125
292,1695728712288,-0.42260742,-0.89141846,0.36175537,-9.234375,3.96875,-4.5625
293,1695728712327,-0.4206543,-0.8953247,0.36639404,-4.109375,3.34375,-1.328125
294,1695728712372,-0.41992188,-0.86846924,0.36395264,3.5,5.015625,0.40625
295,1695728712408,-0.4116211,-0.9026489,0.35736084,10.078125,12.640625,2.34375
296,1695728712449,-0.41259766,-0.87335205,0.3546753,19.375,14.984375,5.109375
297,1695728712488,-0.37646484,-0.9385376,0.3078003,23.265625,17.90625,5.0625
298,1695728712529,-0.39233398,-0.8960571,0.3258667,34.328125,20.453125,4.53125
299,1695728712571,-0.36254883,-1.00177,0.22235107,51.953125,17.640625,9.40625
300,1695728712607,-0.35375977,-0.93878174,0.16522217,12.34375,2.828125,11.1875
301,1695728712648,-0.31860352,-0.8982544,0.15594482,11.578125,-7.21875,0.8125
302,1695728712687,-0.31591797,-0.991272,0.14593506,-4.359375,-6.1875,1.296875
303,1695728712728,-0.28076172,-0.9998169,0.17401123,-4.6875,-13.015625,-0.203125
304,1695728712768,-0.33618164,-0.9517212,0.1473999,-2.875,-24.15625,1.3125
305,1695728712809,-0.33618164,-0.9319458,0.1564331,-33.015625,-23.765625,-2.703125
306,1695728712853,-0.33422852,-0.9602661,0.23504639,-36.96875,-5.4375,-11.59375
307,1695728712896,-0.3894043,-0.989563,0.25823975,-18.0,1.59375,-9.703125
308,1695728712926,-0.39624023,-0.91778564,0.2999878,-13.1875,2.515625,-4.703125
309,1695728712966,-0.39624023,-0.89801025,0.30267334,-11.75,1.3125,-3.296875
310,1695728713008,-0.4050293,-0.8796997,0.34320068,-8.859375,2.671875,-3.9375
311,1695728713050,-0.42919922,-0.93170166,0.32537842,-12.75,2.28125,-2.828125
312,1695728713091,-0.4091797,-0.87994385,0.34783936,-0.6875,0.21875,-1.078125
313,1695728713128,-0.39526367,-0.89556885,0.33099365,2.59375,7.8125,1.5
314,1695728713167,-0.39526367,-0.90509033,0.3283081,18.6875,14.90625,2.390625
315,1695728713208,-0.41064453,-0.9368286,0.3053589,20.515625,10.75,8.171875
316,1695728713248,-0.33398438,-0.9463501,0.276062,21.328125,9.15625,5.46875
317,1695728713291,-0.33813477,-0.9512329,0.26385498,25.6875,8.203125,5.34375
318,1695728713328,-0.35424805,-0.9624634,0.18475342,10.109375,8.609375,4.0
319,1695728713368,-0.33520508,-0.93634033,0.16864014,-6.359375,-2.53125,2.96875
320,1695728713408,-0.28808594,-0.9446411,0.18719482,7.609375,-5.15625,-0.0625
321,1695728713448,-0.30249023,-0.97491455,0.20599365,-1.5,-12.4375,2.234375
322,1695728713467,-0.375,-0.9446411,0.20037842,-8.046875,-19.953125,1.921875
323,1695728713508,-0.36083984,-0.93634033,0.22625732,-36.59375,-11.875,-10.015625
324,1695728713548,-0.32788086,-0.99786377,0.2855835,-8.375,2.125,-10.71875
325,1695728713588,-0.4152832,-0.9224243,0.26141357,-3.828125,1.796875,-5.390625
326,1695728713628,-0.34350586,-0.9014282,0.3048706,6.65625,-0.3125,-4.65625
327,1695728713669,-0.37402344,-0.87823486,0.31585693,-2.984375,1.78125,-1.828125
328,1695728713710,-0.45483398,-0.95318604,0.2975464,-16.203125,1.609375,-5.859375
329,1695728713747,-0.41381836,-0.8948364,0.3024292,-15.296875,3.59375,-5.15625
330,1695728713787,-0.44213867,-0.8933716,0.32147217,-5.875,2.765625,-1.5
331,1695728713827,-0.46166992,-0.8850708,0.32928467,-7.0625,5.984375,0.34375
332,1695728713872,-0.40771484,-0.88360596,0.3102417,2.765625,7.96875,0.328125
333,1695728713911,-0.41333008,-0.9451294,0.30389404,29.609375,16.390625,7.671875
334,1695728713946,-0.36279297,-0.97540283,0.29925537,38.796875,13.421875,8.25
335,1695728713993,-0.4074707,-0.93756104,0.13983154,14.109375,-1.21875,8.46875
336,1695728714026,-0.26171875,-0.88848877,0.22137451,11.0,0.5625,1.4375
337,1695728714067,-0.30249023,-1.0230103,0.23822021,16.8125,-4.1875,2.546875
338,1695728714108,-0.38549805,-0.99591064,0.08441162,8.578125,-2.609375,4.3125
339,1695728714147,-0.33398438,-0.92266846,0.124694824,5.515625,-10.109375,2.953125
340,1695728714187,-0.31079102,-0.9573364,0.19696045,0.96875,-18.421875,2.65625
341,1695728714227,-0.35791016,-0.9570923,0.12884521,-35.0,-9.125,-5.125
342,1695728714267,-0.3798828,-0.9668579,0.20965576,-16.015625,2.640625,-8.15625
343,1695728714309,-0.38964844,-0.9649048,0.22991943,-27.84375,1.6875,-10.953125
344,1695728714347,-0.3762207,-0.8599243,0.31878662,-10.65625,1.359375,-6.28125
345,1695728714391,-0.36328125,-0.9402466,0.30267334,-15.046875,1.140625,-4.59375
346,1695728714427,-0.43041992,-0.9036255,0.33343506,-14.03125,-2.4375,-4.84375
347,1695728714468,-0.4416504,-0.88848877,0.33807373,-1.078125,2.328125,-3.046875
348,1695728714512,-0.4362793,-0.8965454,0.30999756,-4.140625,5.765625,1.34375
349,1695728714549,-0.42382812,-0.8826294,0.31756592,-4.859375,8.09375,0.65625
350,1695728714587,-0.4206543,-0.8652954,0.4022827,20.515625,17.796875,3.09375
351,1695728714628,-0.45947266,-0.9192505,0.2645874,23.90625,12.546875,6.609375
352,1695728714688,-0.3930664,-0.96051025,0.21282959,14.984375,5.765625,7.203125
353,1695728714748,-0.25439453,-0.9487915,0.24163818,20.375,3.78125,4.34375
354,1695728714750,-0.31689453,-0.9800415,0.21160889,18.34375,4.296875,7.25
355,1695728714768,-0.40673828,-0.94854736,0.15106201,-3.671875,-6.875,2.90625
356,1695728714810,-0.30786133,-0.93585205,0.15789795,3.78125,-12.6875,0.03125
357,1695728714849,-0.24902344,-1.0142212,0.17352295,-30.21875,-17.015625,-1.671875
358,1695728714888,-0.38476562,-0.9077759,0.25531006,-15.5625,-19.265625,-3.34375
359,1695728714927,-0.40478516,-0.9302368,0.25750732,-34.296875,-6.171875,-6.40625
360,1695728714967,-0.37109375,-0.94122314,0.30682373,-12.21875,-0.359375,-8.90625
361,1695728715011,-0.38793945,-0.92315674,0.30999756,-2.78125,6.0,-6.5
362,1695728715046,-0.40039062,-0.8928833,0.31732178,-12.75,-0.34375,-4.015625
363,1695728715087,-0.41259766,-0.87945557,0.3312378,-11.03125,-0.8125,-8.125
364,1695728715128,-0.41308594,-0.8777466,0.37347412,-15.078125,2.890625,-6.390625
365,1695728715168,-0.46484375,-0.86309814,0.36956787,-10.34375,-2.859375,-2.953125
366,1695728715208,-0.42822266,-0.86676025,0.4105835,-1.09375,-2.40625,-2.046875
367,1695728715249,-0.45410156,-0.89019775,0.3817749,-1.484375,4.609375,0.609375
368,1695728715291,-0.4753418,-0.8735962,0.35687256,5.828125,11.40625,2.96875
369,1695728715330,-0.46557617,-0.86920166,0.30316162,10.78125,10.25,6.1875
370,1695728715371,-0.30444336,-0.9871216,0.31341553,27.734375,20.40625,3.75
371,1695728715409,-0.42504883,-0.9385376,0.29803467,4.171875,5.296875,8.015625
372,1695728715449,-0.41992188,-0.8460083,0.28729248,7.984375,5.25,4.421875
373,1695728715492,-0.35327148,-0.9805298,0.2753296,-1.875,1.15625,1.859375
374,1695728715527,-0.30615234,-0.90582275,0.32562256,9.984375,-0.796875,0.671875
375,1695728715568,-0.31420898,-0.9883423,0.23944092,6.84375,-6.796875,3.609375
376,1695728715609,-0.3630371,-0.8789673,0.3053589,-3.40625,-9.921875,-0.40625
377,1695728715650,-0.39624023,-0.9651489,0.30584717,-10.1875,-13.28125,0.5625
378,1695728715690,-0.4362793,-0.90289307,0.32025146,-39.046875,-5.09375,-8.765625
379,1695728715727,-0.4345703,-0.9116821,0.33514404,-16.640625,9.875,-14.96875
380,1695728715767,-0.39648438,-0.8965454,0.38275146,-5.890625,5.59375,-2.15625
381,1695728715809,-0.42944336,-0.83795166,0.37176514,-9.15625,-1.859375,0.796875
382,1695728715848,-0.41064453,-0.9163208,0.40545654,-9.40625,3.125,-5.515625
383,1695728715888,-0.43432617,-0.89068604,0.4076538,-1.046875,3.09375,-2.328125
384,1695728715928,-0.4489746,-0.8389282,0.40447998,-7.03125,-1.09375,-1.921875
385,1695728715969,-0.41967773,-0.8779907,0.43084717,5.59375,4.8125,-0.234375
386,1695728716010,-0.38427734,-0.88897705,0.43084717,12.84375,2.34375,5.578125
387,1695728716048,-0.51831055,-0.88848877,0.309021,-0.890625,9.859375,6.203125
388,1695728716066,-0.38842773,-0.8599243,0.34906006,12.90625,22.0625,-2.296875
389,1695728716111,-0.2788086,-1.0200806,0.42425537,33.53125,14.8125,3.21875
390,1695728716147,-0.41088867,-0.8526001,0.28460693,18.6875,-4.015625,11.1875
391,1695728716190,-0.38598633,-0.8423462,0.2855835,7.0,6.34375,2.984375
392,1695728716227,-0.31225586,-1.0078735,0.29779053,2.71875,-6.171875,2.6875
393,1695728716274,-0.33789062,-0.9109497,0.2929077,-0.03125,-14.75,2.6875
394,1695728716310,-0.35839844,-0.95562744,0.3065796,-8.609375,-16.71875,2.59375
395,1695728716346,-0.3894043,-0.9522095,0.2994995,-20.625,-6.953125,-3.609375
396,1695728716387,-0.4091797,-0.88604736,0.3168335,-10.796875,-1.75,-6.75
397,1695728716427,-0.3630371,-0.91900635,0.35784912,-9.265625,-0.078125,-5.09375
398,1695728716466,-0.39038086,-0.8320923,0.3727417,-7.046875,2.25,-0.234375
399,1695728716510,-0.41430664,-0.8713989,0.3781128,-11.59375,4.71875,-6.328125
400,1695728716547,-0.40893555,-0.923645,0.3912964,-9.578125,3.609375,-4.375
401,1695728716586,-0.41625977,-0.8538208,0.3710327,-2.15625,-0.96875,-3.5
402,1695728716631,-0.43920898,-0.85162354,0.4100952,3.4375,6.34375,-2.015625
403,1695728716737,-0.44140625,-0.85235596,0.4401245,22.921875,11.640625,5.09375
404,1695728716739,-0.41357422,-0.93292236,0.34100342,35.9375,15.421875,12.171875
405,1695728716746,-0.4362793,-0.92633057,0.24188232,2.953125,14.015625,5.9375
406,1695728716786,-0.30517578,-0.9512329,0.32489014,39.328125,16.734375,5.09375
407,1695728716828,-0.36572266,-0.9585571,0.26776123,29.34375,8.59375,11.765625
408,1695728716871,-0.39257812,-0.9151001,0.12591553,10.875,-3.21875,8.484375
409,1695728716927,-0.24536133,-0.99542236,0.18743896,11.875,7.484375,-1.328125
410,1695728716948,-0.2368164,-0.9920044,0.1749878,5.734375,-10.125,3.34375
411,1695728717034,-0.31176758,-0.9092407,0.19110107,5.59375,-2.734375,-0.5
412,1695728717037,-0.3395996,-0.9866333,0.1749878,-3.796875,-1.734375,-1.796875
413,1695728717067,-0.31079102,-0.93463135,0.18817139,-12.375,-10.25,0.140625
414,1695728717108,-0.3725586,-0.95684814,0.25506592,-18.265625,-22.234375,4.046875
415,1695728717197,-0.3803711,-0.9348755,0.20599365,-41.96875,-12.5,-10.9375
416,1695728717206,-0.32739258,-0.94903564,0.30926514,-12.71875,4.671875,-14.234375
417,1695728717277,-0.3774414,-0.923645,0.32244873,-9.171875,7.515625,-5.75
418,1695728717279,-0.4267578,-0.83966064,0.3397827,-11.515625,2.0,-3.65625
419,1695728717306,-0.39624023,-0.9221802,0.34295654,-12.859375,2.765625,-4.421875
420,1695728717348,-0.4050293,-0.8748169,0.36102295,1.859375,3.453125,-0.625
421,1695728717368,-0.44091797,-0.91412354,0.33148193,7.640625,6.484375,4.34375
422,1695728717408,-0.37817383,-0.91900635,0.33416748,20.34375,9.65625,5.453125
423,1695728717448,-0.35058594,-0.9351196,0.28533936,15.84375,6.53125,8.671875
424,1695728717489,-0.3330078,-0.9607544,0.28533936,22.875,3.96875,2.796875
425,1695728717529,-0.36914062,-0.9585571,0.21087646,14.1875,2.0,5.875
426,1695728717567,-0.32080078,-0.93341064,0.19403076,13.953125,3.671875,5.859375
427,1695728717607,-0.31835938,-0.9741821,0.19720459,9.171875,-4.734375,5.21875
428,1695728717647,-0.30200195,-0.9536743,0.11639404,-0.71875,-8.609375,3.1875
429,1695728717687,-0.28637695,-0.9522095,0.17254639,-5.265625,-11.234375,-0.609375
430,1695728717728,-0.32299805,-0.97076416,0.22137451,-15.046875,-17.640625,-2.140625
431,1695728717769,-0.3359375,-0.9585571,0.23016357,-19.703125,-6.578125,-4.1875
432,1695728717808,-0.36157227,-0.972229,0.24700928,-20.6875,1.078125,-8.71875
433,1695728717847,-0.3461914,-0.9507446,0.2531128,-12.859375,-0.125,-8.40625
434,1695728717890,-0.33642578,-0.9143677,0.3078003,-12.640625,2.953125,-8.484375
435,1695728717928,-0.4033203,-0.8862915,0.2975464,-14.140625,1.28125,-6.96875
436,1695728717969,-0.42993164,-0.89068604,0.34710693,-16.46875,-0.15625,-6.1875
437,1695728718017,-0.40478516,-0.9089966,0.37908936,-12.421875,-0.53125,-4.0
438,1695728718051,-0.4025879,-0.8897095,0.3534546,1.8125,8.3125,-2.203125
439,1695728718088,-0.4326172,-0.8665161,0.37127686,15.140625,11.640625,2.421875
440,1695728718127,-0.42407227,-0.8809204,0.33685303,26.3125,14.890625,7.125
441,1695728718168,-0.38891602,-0.97052,0.3024292,32.984375,17.3125,7.03125
442,1695728718208,-0.36865234,-0.95928955,0.25164795,28.28125,9.390625,5.671875
443,1695728718248,-0.34643555,-0.92633057,0.18719482,11.046875,2.125,6.578125
444,1695728718288,-0.28759766,-0.94415283,0.18939209,2.5625,1.1875,0.140625
445,1695728718328,-0.32226562,-0.986145,0.20819092,2.359375,-6.421875,-0.640625
446,1695728718370,-0.34033203,-0.9246216,0.14642334,-1.734375,-8.578125,1.109375
447,1695728718409,-0.2919922,-0.9714966,0.2020874,-9.671875,-15.515625,0.265625
448,1695728718448,-0.35791016,-0.960022,0.2518921,-26.796875,-13.25,-4.75
449,1695728718488,-0.40429688,-0.9487915,0.2501831,-27.46875,-7.640625,-8.296875
450,1695728718529,-0.40893555,-0.9216919,0.33636475,-22.4375,-2.0,-11.296875
451,1695728718567,-0.37670898,-0.95025635,0.3065796,-17.765625,0.296875,-9.796875
452,1695728718606,-0.42407227,-0.84820557,0.34320068,-5.625,4.625,-6.5
453,1695728718645,-0.4423828,-0.848938,0.36102295,-10.6875,1.84375,-2.8125
454,1695728718668,-0.43920898,-0.89141846,0.34735107,-7.703125,-1.734375,-3.15625
455,1695728718705,-0.4128418,-0.8753052,0.37127686,3.15625,8.890625,-0.984375
456,1695728718747,-0.43481445,-0.9089966,0.34832764,12.546875,12.71875,4.640625
457,1695728718793,-0.4345703,-0.88287354,0.3324585,22.234375,18.390625,5.734375
458,1695728718827,-0.40844727,-0.91973877,0.32928467,33.0625,11.859375,11.484375
459,1695728718867,-0.38720703,-0.95147705,0.28289795,17.390625,11.796875,8.078125
460,1695728718906,-0.34814453,-0.9729614,0.22576904,13.609375,6.140625,1.640625
461,1695728718967,-0.32055664,-0.94122314,0.20379639,18.671875,5.21875,5.140625
462,1695728718987,-0.29760742,-0.9194946,0.19696045,13.046875,4.28125,4.71875
463,1695728719053,-0.32983398,-0.96221924,0.19036865,8.484375,1.390625,2.859375
464,1695728719068,-0.3322754,-0.9561157,0.15130615,2.0625,-5.140625,2.265625
465,1695728719107,-0.27148438,-0.958313,0.168396,-10.5,-14.5,-1.265625
466,1695728719146,-0.33496094,-0.94415283,0.22821045,-12.578125,-19.953125,-1.234375
467,1695728719187,-0.40698242,-0.9475708,0.22357178,-31.0,-7.1875,-6.9375
468,1695728719228,-0.3930664,-0.94488525,0.27850342,-14.40625,-4.015625,-7.953125
469,1695728719274,-0.38793945,-0.927063,0.28948975,-11.390625,2.1875,-7.9375
470,1695728719308,-0.40795898,-0.8740845,0.3319702,-7.78125,-0.671875,-1.09375
471,1695728719347,-0.3857422,-0.9053345,0.29119873,-17.375,0.921875,-4.875
472,1695728719408,-0.3779297,-0.93292236,0.35736084,-7.0625,2.0625,-5.6875
473,1695728719428,-0.44433594,-0.9194946,0.3151245,-7.515625,1.421875,-1.578125
474,1695728719469,-0.42871094,-0.86602783,0.31048584,7.515625,6.25,2.203125
475,1695728719532,-0.39526367,-0.9011841,0.3414917,12.8125,8.171875,5.046875
476,1695728719549,-0.38500977,-0.90509033,0.322937,29.5625,11.546875,6.609375
477,1695728719591,-0.41333008,-0.9697876,0.23822021,22.78125,15.984375,8.515625
478,1695728719628,-0.3334961,-0.9182739,0.25286865,21.921875,1.734375,6.140625
479,1695728719667,-0.29736328,-0.99005127,0.15325928,17.046875,7.546875,3.75
480,1695728719708,-0.3334961,-0.9512329,0.17059326,11.34375,-2.453125,6.65625
481,1695728719748,-0.33398438,-0.95880127,0.12200928,1.859375,3.90625,1.265625
482,1695728719793,-0.28881836,-0.9834595,0.13519287,4.859375,-2.109375,0.15625
483,1695728719827,-0.33520508,-0.9475708,0.1383667,7.453125,-16.46875,2.171875
484,1695728719867,-0.3322754,-0.99591064,0.14886475,-12.09375,-19.375,-1.015625
485,1695728719908,-0.31713867,-0.9612427,0.2321167,-45.25,-9.625,-11.90625
486,1695728719948,-0.3774414,-0.93341064,0.276062,-7.359375,-2.5,-9.3125
487,1695728719967,-0.39697266,-0.9180298,0.22601318,-4.984375,5.140625,-3.625
488,1695728720019,-0.41430664,-0.9053345,0.27386475,-13.5,1.28125,-2.75
489,1695728720048,-0.3671875,-0.92022705,0.25604248,-14.5625,-0.140625,-5.203125
490,1695728720087,-0.40039062,-0.90948486,0.26434326,-11.875,2.859375,-3.828125
491,1695728720128,-0.4050293,-0.91412354,0.30194092,-1.796875,9.703125,-0.390625
492,1695728720168,-0.43920898,-0.91607666,0.31951904,10.015625,10.40625,3.890625
493,1695728720210,-0.38378906,-0.9077759,0.2772827,27.078125,14.5,5.703125
494,1695728720247,-0.3947754,-0.94537354,0.24017334,27.0625,27.5625,7.796875
495,1695728720287,-0.31323242,-0.9854126,0.2802124,26.203125,0.21875,10.125
496,1695728720328,-0.36743164,-0.9812622,0.105651855,-1.578125,-0.84375,4.59375
497,1695728720372,-0.2890625,-0.9649048,0.1618042,15.671875,6.453125,3.46875
498,1695728720408,-0.31640625,-1.0083618,0.19647217,10.609375,-7.390625,2.8125
499,1695728720447,-0.40356445,-0.87091064,0.044128418,-8.296875,-9.5625,4.703125
500,1695728720488,-0.23730469,-0.9451294,0.121276855,-5.875,-7.9375,0.203125
501,1695728720529,-0.26171875,-1.060852,0.1906128,-9.484375,-19.859375,1.46875
502,1695728720570,-0.35620117,-0.94610596,0.15740967,-27.0625,-14.234375,-2.625
503,1695728720610,-0.3244629,-0.954895,0.25994873,-23.421875,-6.75,-7.765625
504,1695728720650,-0.3635254,-0.9771118,0.24481201,-22.65625,-2.1875,-11.875
505,1695728720687,-0.36547852,-0.9336548,0.28582764,-2.109375,3.65625,-7.84375
506,1695728720726,-0.3828125,-0.9192505,0.2946167,-21.640625,2.6875,-5.421875
507,1695728720766,-0.38232422,-0.8867798,0.32000732,-14.328125,2.1875,-8.234375
508,1695728720806,-0.42089844,-0.897522,0.32855225,-9.609375,1.359375,-3.59375
509,1695728720846,-0.4506836,-0.89141846,0.30145264,-4.953125,4.109375,0.765625
510,1695728720886,-0.39819336,-0.9077759,0.3324585,7.421875,9.03125,2.640625
511,1695728720927,-0.3635254,-0.92144775,0.33343506,25.65625,20.453125,3.796875
512,1695728720968,-0.4182129,-0.92144775,0.28338623,24.71875,12.0,10.109375
513,1695728721019,-0.34277344,-0.9612427,0.23602295,23.890625,10.921875,6.0625
514,1695728721050,-0.31176758,-0.9915161,0.20062256,27.375,8.953125,7.6875
515,1695728721086,-0.28686523,-0.9553833,0.18841553,22.28125,5.84375,5.59375
516,1695728721127,-0.34472656,-0.94488525,0.10321045,10.828125,2.4375,3.125
517,1695728721168,-0.2927246,-0.9644165,0.124694824,5.28125,-5.578125,2.5
518,1695728721208,-0.27026367,-0.97003174,0.13348389,-1.78125,-0.203125,-1.140625
519,1695728721250,-0.3017578,-0.96295166,0.12982178,-4.5,-10.71875,0.59375
520,1695728721274,-0.33154297,-0.97857666,0.085632324,-11.8125,-15.703125,-0.984375
521,1695728721308,-0.30249023,-0.9702759,0.18304443,-22.140625,-16.40625,-5.25
522,1695728721346,-0.33813477,-0.99176025,0.25726318,-31.03125,6.28125,-12.625
523,1695728721388,-0.40942383,-0.9636841,0.2062378,-17.21875,1.78125,-12.609375
524,1695728721427,-0.39233398,-0.85650635,0.28656006,-17.109375,1.5,-3.34375
525,1695728721469,-0.3815918,-0.8870239,0.32611084,-11.15625,-1.828125,-2.78125
526,1695728721508,-0.40454102,-0.94195557,0.2850952,-20.859375,1.46875,-7.25
527,1695728721547,-0.40429688,-0.9351196,0.3546753,-7.0,2.09375,-5.609375
528,1695728721588,-0.42089844,-0.88165283,0.34173584,3.234375,1.234375,1.03125
529,1695728721627,-0.42016602,-0.88531494,0.29022217,5.828125,3.8125,3.78125
530,1695728721668,-0.37036133,-0.9241333,0.32391357,19.5625,15.328125,2.109375
531,1695728721708,-0.38720703,-0.94488525,0.3012085,25.234375,18.234375,6.78125
532,1695728721748,-0.35717773,-0.94244385,0.230896,25.828125,17.734375,4.453125
533,1695728721793,-0.3161621,-0.9546509,0.20355225,13.21875,5.9375,3.265625
534,1695728721826,-0.30249023,-0.9619751,0.25823975,15.59375,3.3125,2.515625
535,1695728721867,-0.39770508,-0.98565674,0.18353271,0.78125,-6.40625,1.71875
536,1695728721908,-0.3552246,-0.89849854,0.13787842,-12.875,0.359375,-0.515625
537,1695728721947,-0.29345703,-0.9714966,0.20233154,10.03125,-4.90625,0.046875
538,1695728721989,-0.37817383,-1.0244751,0.10369873,-27.8125,-17.421875,1.40625
539,1695728722027,-0.30273438,-0.93756104,0.29486084,-10.15625,-1.109375,-8.0625
540,1695728722068,-0.37939453,-0.9902954,0.28094482,-14.765625,-19.046875,1.296875
541,1695728722107,-0.41430664,-0.78570557,0.21795654,-15.890625,-2.140625,-9.28125
542,1695728722147,-0.39916992,-0.91729736,0.31292725,-10.09375,-4.21875,-3.515625
543,1695728722188,-0.36376953,-0.98394775,0.33343506,-11.078125,-2.53125,-1.453125
544,1695728722229,-0.4074707,-0.91070557,0.2819214,-2.09375,-0.453125,-2.40625
545,1695728722272,-0.3881836,-0.87506104,0.32318115,3.609375,3.328125,0.0625
546,1695728722308,-0.40820312,-0.9336548,0.2904663,-7.9375,1.109375,1.875
547,1695728722347,-0.47265625,-0.89141846,0.3139038,-9.921875,1.96875,-0.3125
548,1695728722389,-0.46679688,-0.897522,0.33758545,-15.359375,3.859375,-3.03125
549,1695728722427,-0.30541992,-0.9019165,0.32440186,11.640625,14.4375,3.0
550,1695728722468,-0.37036133,-0.9663696,0.3307495,28.796875,11.296875,4.4375
551,1695728722507,-0.40039062,-0.9302368,0.21453857,32.0625,5.4375,9.515625
552,1695728722548,-0.28564453,-0.925354,0.22796631,14.0625,7.796875,3.734375
553,1695728722567,-0.31518555,-0.9968872,0.2111206,11.71875,-5.125,2.703125
554,1695728722609,-0.36865234,-0.93341064,0.16912842,-18.578125,2.0625,-0.15625
555,1695728722648,-0.32006836,-0.9429321,0.23846436,12.0625,0.359375,0.6875
556,1695728722689,-0.3215332,-0.9998169,0.19940186,1.296875,-4.546875,-1.15625
557,1695728722730,-0.33032227,-0.92974854,0.15325928,-14.046875,-7.296875,-4.21875
558,1695728722768,-0.31982422,-0.95269775,0.2765503,-2.953125,-16.453125,-5.734375
559,1695728722808,-0.43481445,-0.9417114,0.25994873,-39.203125,-15.28125,-6.921875
560,1695728722848,-0.4597168,-0.8538208,0.2814331,-13.15625,0.40625,-11.234375
561,1695728722889,-0.4375,-0.9734497,0.32147217,-4.828125,-0.625,-4.5
562,1695728722928,-0.4025879,-0.8711548,0.32635498,-15.6875,3.84375,0.484375
563,1695728722966,-0.41479492,-0.894104,0.3204956,-5.5,1.125,-6.625
564,1695728723017,-0.43139648,-0.8740845,0.3397827,-6.515625,3.78125,-2.59375
565,1695728723053,-0.45117188,-0.9133911,0.33953857,1.1875,3.234375,0.984375
566,1695728723090,-0.42456055,-0.89263916,0.3378296,6.78125,6.109375,2.0
567,1695728723128,-0.41967773,-0.8965454,0.33392334,28.0625,9.0,7.40625
568,1695728723167,-0.4272461,-0.9336548,0.25091553,22.46875,18.484375,9.15625
569,1695728723210,-0.33862305,-0.97125244,0.25531006,36.15625,21.640625,4.921875
570,1695728723249,-0.30541992,-0.9680786,0.20672607,27.1875,13.421875,6.390625
571,1695728723288,-0.35717773,-0.9014282,0.13885498,18.296875,2.21875,5.0625
572,1695728723327,-0.3635254,-0.94659424,0.19744873,9.828125,-2.6875,3.296875
573,1695728723367,-0.32958984,-0.99468994,0.12640381,-1.703125,-4.4375,3.234375
574,1695728723409,-0.31982422,-0.9614868,0.13397217,-0.34375,-3.34375,0.84375
575,1695728723449,-0.32006836,-0.9636841,0.11151123,-12.0,-11.3125,-0.5
576,1695728723490,-0.31713867,-0.9421997,0.18719482,-18.265625,-19.140625,-2.921875
577,1695728723529,-0.34179688,-0.9639282,0.23699951,-25.875,-20.984375,-4.96875
578,1695728723570,-0.43603516,-0.93878174,0.21624756,-28.0,-3.453125,-13.0
579,1695728723609,-0.4194336,-0.97003174,0.25628662,-6.6875,2.4375,-6.640625
580,1695728723647,-0.39501953,-0.8845825,0.27923584,-20.234375,3.90625,-3.703125
581,1695728723687,-0.3857422,-0.90826416,0.3234253,-4.703125,2.71875,-4.1875
582,1695728723726,-0.4326172,-0.89508057,0.2904663,-16.515625,1.234375,-2.34375
583,1695728723770,-0.4206543,-0.8892212,0.32806396,0.421875,2.5625,-1.65625
584,1695728723809,-0.4267578,-0.8838501,0.3468628,5.453125,3.3125,4.375
585,1695728723852,-0.43066406,-0.909729,0.2592163,4.390625,6.8125,5.4375
586,1695728723869,-0.36157227,-0.92559814,0.32000732,31.140625,25.21875,3.296875
587,1695728723906,-0.41333008,-0.95391846,0.26922607,34.3125,18.90625,13.8125
588,1695728723946,-0.3137207,-0.93756104,0.19256592,17.5,15.484375,8.640625
589,1695728723992,-0.30566406,-0.9859009,0.16595459,17.21875,4.65625,0.921875
590,1695728724027,-0.33032227,-0.96759033,0.2020874,10.46875,0.84375,4.015625
591,1695728724067,-0.33374023,-0.9595337,0.16595459,7.96875,-3.78125,4.3125
592,1695728724107,-0.35180664,-0.9414673,0.10223389,-1.171875,-4.421875,-0.0625
593,1695728724146,-0.2890625,-0.96710205,0.14154053,-14.375,-12.953125,-1.0625
594,1695728724186,-0.29736328,-1.0076294,0.19476318,-20.75,-20.078125,-3.640625
595,1695728724226,-0.37304688,-0.9351196,0.23944092,-37.203125,-26.265625,-6.5625
596,1695728724269,-0.3215332,-0.97491455,0.1942749,-29.453125,1.25,-16.84375
597,1695728724308,-0.4453125,-0.9089966,0.322937,-2.640625,-4.015625,-7.859375
598,1695728724347,-0.45043945,-0.82647705,0.30389404,-19.5625,-0.875,0.375
599,1695728724387,-0.3623047,-0.93756104,0.33172607,-7.046875,3.078125,-4.96875
600,1695728724427,-0.38720703,-0.909729,0.35369873,-0.640625,5.75,-0.984375
601,1695728724468,-0.43774414,-0.91241455,0.28631592,4.171875,5.734375,4.046875
602,1695728724508,-0.40600586,-0.8945923,0.3048706,2.25,7.984375,0.921875
603,1695728724547,-0.39404297,-0.92022705,0.293396,4.375,5.9375,2.75
604,1695728724588,-0.36279297,-0.9155884,0.29608154,14.78125,17.609375,3.4375
605,1695728724628,-0.36987305,-0.95880127,0.2616577,35.78125,27.6875,3.34375
606,1695728724668,-0.38183594,-0.975647,0.23358154,26.484375,13.03125,9.921875
607,1695728724708,-0.32421875,-0.9290161,0.21502686,27.796875,1.359375,10.890625
608,1695728724748,-0.31176758,-0.9639282,0.15057373,3.65625,1.5625,2.90625
609,1695728724787,-0.30444336,-0.99957275,0.18206787,6.90625,2.484375,-1.796875
610,1695728724827,-0.33569336,-0.9807739,0.11981201,6.1875,-12.671875,1.3125
611,1695728724870,-0.30859375,-0.9024048,0.1293335,5.859375,-5.625,2.84375
612,1695728724908,-0.29223633,-0.9771118,0.1437378,4.6875,-14.90625,1.109375
613,1695728724947,-0.33544922,-0.972229,0.113464355,-24.140625,-21.671875,-0.171875
614,1695728724987,-0.30615234,-0.98272705,0.2008667,-37.515625,-11.578125,-7.125
615,1695728725027,-0.36206055,-1.0032349,0.20379639,-17.453125,1.125,-16.21875
616,1695728725068,-0.40576172,-0.9031372,0.246521,-6.4375,-0.375,-3.5
617,1695728725107,-0.39160156,-0.87872314,0.246521,-21.34375,-3.84375,-1.703125
618,1695728725146,-0.3544922,-0.9360962,0.291687,-15.390625,2.328125,-8.53125
619,1695728725168,-0.38354492,-0.99542236,0.30462646,-13.296875,0.34375,-4.984375
620,1695728725209,-0.43188477,-0.847229,0.27044678,-10.0625,4.78125,-4.09375
621,1695728725248,-0.4267578,-0.8748169,0.3287964,-1.046875,3.59375,-2.078125
622,1695728725289,-0.38183594,-0.94781494,0.32489014,7.015625,9.59375,5.953125
623,1695728725329,-0.40405273,-0.9024048,0.3270874,21.8125,16.828125,6.890625
624,1695728725370,-0.42578125,-0.91607666,0.28753662,29.96875,19.6875,8.5
625,1695728725408,-0.32373047,-1.0020142,0.24945068,33.96875,24.390625,11.046875
626,1695728725448,-0.2944336,-0.9727173,0.17401123,29.234375,7.96875,4.96875
627,1695728725487,-0.3125,-0.9192505,0.1251831,9.0,4.734375,2.046875
628,1695728725527,-0.28686523,-0.97442627,0.1642456,10.828125,-1.234375,2.703125
629,1695728725569,-0.31298828,-0.9368286,0.13446045,-0.578125,-9.71875,0.96875
630,1695728725608,-0.28466797,-0.9336548,0.08416748,-10.125,-12.6875,-0.234375
631,1695728725648,-0.2939453,-1.029602,0.15106201,-20.78125,-28.40625,-3.34375
632,1695728725688,-0.34057617,-0.93951416,0.24334717,-35.625,-20.53125,-9.453125
633,1695728725728,-0.31396484,-1.0059204,0.21087646,-6.578125,1.984375,-12.828125
634,1695728725769,-0.4267578,-0.91656494,0.20794678,-10.34375,0.4375,-6.53125
635,1695728725807,-0.4243164,-0.8555298,0.2772827,-12.203125,-2.578125,-1.703125
636,1695728725850,-0.36254883,-0.9944458,0.31219482,-14.34375,5.71875,-4.234375
637,1695728725891,-0.43310547,-0.911438,0.28631592,-10.578125,3.9375,-3.984375
638,1695728725927,-0.4387207,-0.8735962,0.3036499,-10.265625,0.703125,-1.0625
639,1695728725967,-0.40185547,-0.92974854,0.30023193,-1.0,6.390625,0.140625
640,1695728726008,-0.3959961,-0.9356079,0.27313232,7.96875,13.53125,2.890625
641,1695728726047,-0.41357422,-0.8804321,0.28753662,29.34375,18.65625,4.28125
642,1695728726088,-0.32617188,-0.95513916,0.23382568,40.25,17.515625,10.578125
643,1695728726127,-0.30029297,-1.0090942,0.16009521,35.828125,12.265625,10.703125
644,1695728726172,-0.31567383,-0.95880127,0.18109131,24.765625,8.296875,5.34375
645,1695728726209,-0.296875,-0.9819946,0.05706787,0.3125,-6.875,2.46875
646,1695728726250,-0.2770996,-0.9404907,0.10443115,0.234375,-3.265625,1.0
647,1695728726294,-0.28320312,-0.9963989,0.11199951,-9.53125,-15.75,-0.140625
648,1695728726328,-0.3359375,-0.97369385,0.121276855,-26.21875,-29.1875,-2.140625
649,1695728726368,-0.31689453,-0.9302368,0.23162842,-36.953125,-16.078125,-10.25
650,1695728726410,-0.37036133,-1.0081177,0.19476318,-21.828125,0.3125,-14.6875
651,1695728726448,-0.39086914,-0.9158325,0.26727295,-9.5,2.40625,-6.640625
652,1695728726467,-0.4033203,-0.88531494,0.29144287,-13.1875,-0.359375,-2.578125
653,1695728726508,-0.39770508,-0.8909302,0.293396,-16.546875,1.96875,-6.09375
654,1695728726548,-0.4411621,-0.897522,0.33758545,-7.328125,1.671875,-4.46875
655,1695728726587,-0.43603516,-0.9180298,0.3270874,-1.8125,4.15625,1.765625
656,1695728726627,-0.4050293,-0.9138794,0.27752686,5.421875,7.78125,2.625
657,1695728726668,-0.37695312,-0.8982544,0.28363037,16.359375,14.921875,2.0625
658,1695728726708,-0.36743164,-0.9546509,0.2616577,37.625,21.09375,7.625
659,1695728726750,-0.3552246,-0.9697876,0.20037842,21.96875,15.0,10.34375
660,1695728726788,-0.2993164,-0.9558716,0.19696045,26.1875,13.921875,4.03125
661,1695728726827,-0.2980957,-0.98687744,0.17596436,25.625,4.484375,5.046875
662,1695728726867,-0.32714844,-0.96051025,0.12664795,3.65625,-0.421875,1.578125
663,1695728726907,-0.32470703,-0.95928955,0.09613037,7.6875,-1.234375,-0.875
664,1695728726948,-0.2956543,-0.97003174,0.09613037,2.90625,-8.0625,2.078125
665,1695728726987,-0.32421875,-0.9680786,0.074401855,-6.59375,-8.40625,-0.34375
666,1695728727067,-0.31420898,-0.94073486,0.13568115,-18.421875,-20.0,-5.6875
667,1695728727088,-0.3474121,-0.95318604,0.23626709,-29.5,-21.0625,-6.625
668,1695728727109,-0.4189453,-0.94537354,0.15716553,-31.703125,-3.0,-8.78125
669,1695728727146,-0.3647461,-0.9636841,0.2453003,-10.234375,-0.96875,-6.84375
670,1695728727188,-0.36865234,-0.95098877,0.27508545,-17.1875,4.34375,-3.609375
671,1695728727228,-0.42797852,-0.89312744,0.26141357,-15.75,-1.921875,-4.640625
672,1695728727268,-0.4206543,-0.8821411,0.2982788,-20.6875,1.578125,-7.78125
673,1695728727308,-0.38134766,-0.9507446,0.3480835,0.1875,5.359375,-1.890625
674,1695728727347,-0.43896484,-0.9216919,0.2994995,-2.46875,-1.109375,2.421875
675,1695728727388,-0.3942871,-0.8826294,0.28460693,2.65625,10.40625,2.546875
676,1695728727427,-0.39941406,-0.9248657,0.27874756,17.953125,17.03125,3.796875
677,1695728727469,-0.3659668,-0.9277954,0.28607178,27.0625,26.578125,5.1875
678,1695728727507,-0.32128906,-1.005188,0.21624756,15.734375,17.5625,4.703125
679,1695728727549,-0.2932129,-0.9234009,0.24285889,23.921875,15.625,-0.421875
680,1695728727588,-0.35717773,-0.96051025,0.17962646,13.109375,-1.640625,3.4375
681,1695728727627,-0.3239746,-0.93585205,0.14715576,-8.4375,-6.625,2.9375
682,1695728727667,-0.31933594,-0.989563,0.152771,-8.140625,-7.609375,-2.09375
683,1695728727708,-0.3125,-0.94732666,0.22235107,9.296875,-15.90625,-5.1875
684,1695728727747,-0.38549805,-0.928772,0.21136475,3.171875,-27.140625,1.234375
685,1695728727767,-0.44799805,-0.8677368,0.22821045,-41.71875,-25.875,-4.5
686,1695728727807,-0.35986328,-0.97369385,0.22259521,-10.0625,-0.296875,-13.515625
687,1695728727848,-0.38623047,-0.9961548,0.28533936,4.75,1.359375,2.0625
688,1695728727895,-0.43676758,-0.85601807,0.25091553,-8.09375,-0.984375,-0.8125
689,1695728727927,-0.36645508,-0.96539307,0.293396,-0.640625,10.25,-0.28125
690,1695728727968,-0.4506836,-0.90167236,0.2609253,10.375,6.140625,6.203125
691,1695728728009,-0.3959961,-0.96661377,0.21282959,12.40625,4.890625,5.59375
692,1695728728048,-0.33007812,-0.942688,0.18792725,12.71875,8.75,2.796875
693,1695728728116,-0.34521484,-0.9116821,0.19818115,13.171875,8.609375,0.9375
694,1695728728128,-0.3803711,-0.92852783,0.20306396,15.578125,16.234375,2.015625
695,1695728728168,-0.3828125,-0.9873657,0.13983154,16.625,16.640625,5.96875
696,1695728728209,-0.3166504,-1.0100708,0.14276123,12.484375,11.765625,5.34375
697,1695728728249,-0.35107422,-0.8723755,0.09979248,18.859375,3.921875,5.34375
698,1695728728289,-0.32470703,-0.9678345,0.07318115,-6.53125,-7.625,2.125
699,1695728728328,-0.3005371,-1.0217896,0.16766357,-9.65625,-4.21875,0.484375
700,1695728728370,-0.43774414,-0.83428955,0.093933105,-26.21875,-23.46875,-2.671875
701,1695728728407,-0.20092773,-1.0408325,0.07196045,7.0,5.03125,-0.40625
702,1695728728449,-0.35473633,-0.9968872,0.17791748,-4.765625,-19.28125,-0.609375
703,1695728728488,-0.4362793,-0.9158325,0.18377686,-9.9375,-20.515625,0.609375
704,1695728728528,-0.3461914,-0.90045166,0.21356201,-29.5625,-2.78125,-6.703125
705,1695728728570,-0.34179688,-0.99884033,0.21575928,-8.421875,-0.578125,-5.40625
706,1695728728610,-0.37890625,-0.91412354,0.27264404,-13.8125,3.609375,-4.421875
707,1695728728651,-0.43408203,-0.9570923,0.262146,-0.125,-0.15625,-4.625
708,1695728728688,-0.39648438,-0.90582275,0.24871826,-11.5,0.78125,1.078125
709,1695728728728,-0.40356445,-0.892395,0.21600342,-10.328125,0.375,-1.15625
710,1695728728772,-0.35791016,-1.017395,0.24554443,4.03125,1.796875,0.765625
711,1695728728810,-0.39501953,-0.9495239,0.21722412,-3.625,1.8125,2.515625
712,1695728728848,-0.40698242,-0.8760376,0.24505615,6.203125,6.828125,0.40625
713,1695728728887,-0.3635254,-0.93341064,0.2321167,17.828125,13.859375,2.21875
714,1695728728934,-0.35986328,-0.9793091,0.1798706,24.8125,22.25,5.28125
715,1695728728967,-0.3076172,-0.97320557,0.2333374,32.5625,20.1875,8.15625
716,1695728729006,-0.31811523,-0.9351196,0.121276855,17.28125,-3.34375,7.265625
717,1695728729050,-0.28710938,-0.9439087,0.09686279,-4.125,4.4375,-1.296875
718,1695728729069,-0.32128906,-1.0247192,0.14007568,-2.765625,-5.515625,-0.015625
719,1695728729107,-0.37573242,-0.9351196,0.08758545,-0.890625,-7.921875,1.171875
720,1695728729147,-0.25878906,-0.96466064,0.08807373,2.875,-10.4375,-0.359375
721,1695728729187,-0.34765625,-0.9702759,0.12054443,-18.421875,-23.265625,0.921875
722,1695728729227,-0.3540039,-0.94854736,0.21868896,-38.890625,-13.828125,-8.71875
723,1695728729273,-0.38867188,-0.99786377,0.18157959,-33.6875,-1.421875,-14.0
724,1695728729328,-0.39257812,-0.90802,0.26068115,2.375,6.265625,-11.703125
725,1695728729347,-0.37353516,-0.90948486,0.2892456,-21.296875,8.03125,-0.46875
726,1695728729408,-0.42382812,-0.8648071,0.32537842,-10.046875,-0.203125,-2.546875
727,1695728729426,-0.43920898,-0.9260864,0.30560303,-4.03125,-0.90625,-2.6875
728,1695728729508,-0.4038086,-0.9421997,0.3078003,-2.109375,4.21875,0.828125
729,1695728729510,-0.42211914,-0.9048462,0.2892456,-7.15625,-0.4375,0.234375
730,1695728729548,-0.40356445,-0.90338135,0.2904663,2.75,4.484375,0.90625
731,1695728729591,-0.35986328,-0.91656494,0.28851318,20.84375,11.71875,1.859375
732,1695728729629,-0.39819336,-0.954895,0.2477417,20.984375,11.890625,8.4375
733,1695728729667,-0.3395996,-0.9463501,0.17327881,13.875,12.859375,7.171875
734,1695728729706,-0.29907227,-0.9590454,0.24188232,13.484375,1.0625,4.734375
735,1695728729747,-0.32470703,-0.9649048,0.2189331,3.625,-5.90625,2.90625
736,1695728729787,-0.38867188,-0.96759033,0.14398193,7.09375,-1.578125,2.078125
737,1695728729843,-0.31152344,-0.9690552,0.15692139,2.484375,-2.65625,0.15625
738,1695728729875,-0.32104492,-0.95977783,0.16009521,6.109375,-9.296875,-0.40625
739,1695728729907,-0.33862305,-0.9619751,0.17596436,-8.75,-13.1875,-0.46875
740,1695728729955,-0.3581543,-0.9404907,0.19818115,-53.234375,-25.859375,-11.71875
741,1695728729990,-0.38427734,-0.92755127,0.27972412,-27.84375,-9.53125,-12.984375
742,1695728730031,-0.43164062,-0.9805298,0.25506592,-26.125,3.46875,-11.578125
743,1695728730066,-0.46728516,-0.85284424,0.34906006,-11.140625,-2.46875,-3.09375
744,1695728730107,-0.42871094,-0.8760376,0.36053467,-10.453125,3.140625,-3.859375
745,1695728730146,-0.40454102,-0.913147,0.3632202,-5.953125,4.671875,-4.28125
746,1695728730186,-0.46728516,-0.8652954,0.3571167,-11.21875,0.1875,-2.828125
747,1695728730226,-0.42919922,-0.87750244,0.3739624,1.0,3.734375,-1.859375
748,1695728730268,-0.44262695,-0.88775635,0.33270264,-3.171875,14.015625,-1.03125
749,1695728730305,-0.36083984,-0.8833618,0.33831787,43.546875,34.390625,-2.9375
750,1695728730347,-0.4477539,-0.8899536,0.32366943,45.65625,13.5625,18.484375
751,1695728730366,-0.39282227,-0.92926025,0.20184326,6.40625,3.1875,16.984375
752,1695728730406,-0.27807617,-0.98687744,0.3024292,11.703125,14.953125,-2.71875
753,1695728730446,-0.36889648,-1.0320435,0.2670288,15.234375,0.625,3.0
754,1695728730487,-0.4008789,-0.8994751,0.120788574,-16.96875,-5.203125,1.734375
755,1695728730526,-0.30322266,-0.8677368,0.20892334,-1.8125,-3.359375,-5.703125
756,1695728730566,-0.32641602,-1.0618286,0.2753296,7.21875,-16.703125,1.15625
757,1695728730610,-0.36914062,-0.9295044,0.24139404,-2.296875,-21.78125,0.359375
758,1695728730647,-0.36767578,-0.9434204,0.2218628,-22.71875,-16.0,-7.9375
759,1695728730686,-0.3852539,-0.91363525,0.26312256,-16.8125,-0.171875,-12.046875
