# Sensor type: Respeck
# Activity type: Miscellaneous movements
# Activity subtype: Normal
# Subject id: s1862623
# Notes: sitting down and up
timestamp,accel_x,accel_y,accel_z,gyro_x,gyro_y,gyro_z
1695729174074,0.83251953,-1.4624634,-0.28985596,24.71875,5.59375,9.4375
1695729174104,0.38500977,-1.5249634,-0.23052979,20.796875,7.4375,-13.84375
1695729174147,-0.024414062,-1.1738892,-0.36480713,-4.296875,25.203125,-18.453125
1695729174177,0.25585938,-0.8777466,-0.43341064,-31.09375,17.625,-32.0625
1695729174222,0.43896484,-0.84332275,-0.26617432,-19.0,13.3125,-33.828125
1695729174268,0.1899414,-0.8386841,-0.07965088,-50.046875,14.875,-46.28125
1695729174298,0.04272461,-0.7695923,-0.20587158,-66.140625,17.03125,-58.640625
1695729174344,0.05908203,-0.52789307,-0.25323486,-46.6875,13.71875,-48.703125
1695729174388,0.1899414,-0.4102173,-0.14459229,-51.234375,6.03125,-36.484375
1695729174417,0.10131836,-0.4656372,-0.085510254,-46.609375,3.515625,-32.0625
1695729174462,0.010986328,-0.6343384,-0.070617676,-33.1875,-0.46875,-23.625
1695729174493,-0.021484375,-0.81988525,-0.101135254,-13.484375,-12.46875,-7.28125
1695729174538,-0.03564453,-0.96759033,-0.06036377,5.140625,1.296875,1.265625
1695729174583,-0.1394043,-0.91778564,-0.043273926,21.546875,5.84375,8.546875
1695729174613,-0.11328125,-0.8049927,-0.10455322,31.25,11.671875,18.40625
1695729174659,0.021972656,-0.7295532,-0.11578369,50.40625,15.34375,23.625
1695729174703,0.048583984,-0.59625244,-0.14190674,57.390625,7.453125,32.125
1695729174732,0.107910156,-0.4932251,-0.24395752,67.34375,-0.28125,36.765625
1695729174778,0.061279297,-0.4517212,-0.2420044,61.25,-11.328125,46.171875
1695729174808,0.13549805,-0.57647705,-0.3110962,50.609375,-31.265625,40.953125
1695729174853,0.07348633,-0.6602173,-0.37994385,32.125,-31.4375,32.296875
1695729174899,0.109375,-0.8274536,-0.47857666,27.671875,-25.78125,27.578125
1695729174930,0.42504883,-1.0923462,-0.16973877,51.765625,8.8125,24.21875
1695729174973,0.296875,-1.4246216,-0.5811157,-31.9375,-21.515625,26.71875
1695729175019,0.47460938,-1.1426392,-0.5183716,-24.171875,1.421875,7.59375
1695729175049,0.5925293,-1.2354126,-0.57696533,-15.625,-12.8125,7.796875
1695729175098,0.30859375,-1.4307251,-0.4680786,-57.4375,11.5,-14.171875
1695729175139,0.6760254,-1.2793579,-0.42437744,-20.078125,-17.875,-5.640625
1695729175170,0.46069336,-1.11969,-0.331604,-12.78125,-5.609375,-46.125
1695729175229,0.44702148,-1.3162231,-0.17755127,-53.078125,-13.5625,-29.625
1695729175244,0.21582031,-1.3699341,0.23919678,-10.671875,-15.03125,-34.796875
1695729175290,-0.44458008,-1.0855103,-0.066711426,-16.390625,21.078125,-35.046875
1695729175334,0.107666016,-0.41900635,-0.3604126,-51.984375,-8.265625,-34.59375
1695729175364,0.017822266,-0.39801025,-0.028137207,-4.8125,33.65625,-40.28125
1695729175410,-0.068847656,-0.86065674,0.0758667,-22.0,17.828125,-16.453125
1695729175454,-0.13330078,-1.4485474,0.08123779,-20.1875,-6.09375,-11.6875
1695729175483,-0.15966797,-1.6624146,0.06048584,-14.859375,-3.8125,-39.140625
1695729175529,-0.21826172,-0.7144165,0.11785889,-35.578125,-0.03125,-27.765625
1695729175558,-0.24731445,-0.37164307,0.08782959,4.21875,3.9375,-14.234375
1695729175606,-0.11303711,-0.8303833,0.23797607,8.0625,-4.703125,-1.359375
1695729175650,-0.1940918,-1.4382935,0.4118042,-0.640625,-4.546875,2.75
1695729175680,-0.31713867,-1.185852,0.17352295,-32.484375,-2.75,-6.0625
1695729175723,-0.3540039,-0.57598877,0.16400146,2.0,4.34375,-0.546875
1695729175800,-0.17797852,-0.67315674,0.1564331,16.90625,6.34375,10.296875
1695729175802,-0.05810547,-1.0300903,0.23138428,15.03125,-0.6875,27.09375
1695729175845,-0.038085938,-0.9968872,0.25750732,18.46875,-14.96875,27.984375
1695729175875,-0.20825195,-0.9421997,0.117614746,26.078125,-13.890625,29.3125
1695729175919,-0.20825195,-0.9085083,0.12762451,45.828125,1.625,33.5625
1695729175964,-0.09838867,-1.0276489,0.02142334,57.890625,-4.53125,34.078125
1695729175995,-0.14526367,-1.2605591,-0.047180176,35.40625,-4.515625,39.046875
1695729176039,-0.13061523,-1.4885864,-0.28790283,24.796875,14.765625,30.296875
1695729176084,0.5119629,-1.3528442,-0.5911255,14.40625,11.09375,23.0625
1695729176119,0.8391113,-1.2966919,-0.4758911,34.078125,2.953125,13.234375
1695729176159,0.40673828,-1.6140747,-0.47296143,11.09375,-6.40625,-6.3125
1695729176189,-0.018310547,-1.4807739,-0.3262329,3.484375,5.984375,-9.359375
1695729176235,0.018798828,-1.0564575,-0.37017822,-28.265625,23.359375,-9.28125
1695729176279,0.18579102,-0.7583618,-0.3821411,-24.078125,18.90625,-17.96875
1695729176309,0.24731445,-0.8464966,-0.17462158,-24.703125,9.5,-35.609375
1695729176356,0.19799805,-0.9326782,-0.069885254,-62.0,12.0625,-41.296875
1695729176430,0.08276367,-0.61016846,-0.22198486,-52.640625,11.875,-44.140625
1695729176433,-0.010498047,-0.4192505,-0.175354,-35.40625,8.421875,-50.0625
1695729176474,0.030761719,-0.40093994,-0.089416504,-40.828125,0.875,-34.578125
1695729176504,0.03930664,-0.51226807,-0.07281494,-32.265625,-0.375,-14.390625
1695729176548,-0.05834961,-0.737854,-0.08258057,-18.53125,-14.0,-8.734375
1695729176595,-0.10961914,-1.0713501,-0.034484863,-1.953125,-4.75,-4.40625
1695729176625,-0.034179688,-1.0391235,-0.046936035,-4.6875,-2.921875,1.25
1695729176670,-0.12988281,-0.8303833,-0.11065674,4.90625,15.984375,12.5625
1695729176714,-0.10107422,-0.7046509,-0.113586426,21.03125,17.046875,15.375
1695729176745,-0.08520508,-0.6836548,-0.12921143,36.703125,13.578125,23.3125
1695729176789,0.07348633,-0.6350708,-0.1531372,38.265625,17.828125,30.703125
1695729176819,0.2553711,-0.5471802,-0.1921997,51.625,9.875,34.859375
1695729176864,0.1574707,-0.49224854,-0.18218994,72.5625,-2.46875,42.0625
1695729176910,0.056396484,-0.5288696,-0.13458252,88.9375,-8.453125,47.5625
1695729176939,-0.22070312,-0.6760864,-0.3225708,26.984375,-24.765625,37.515625
1695729176985,-0.0703125,-1.1304321,-0.39630127,44.453125,5.046875,11.671875
1695729177029,0.34106445,-1.163147,-0.5623169,-15.0625,-25.0625,13.578125
1695729177059,0.70654297,-1.3713989,-0.3555298,42.203125,-11.0,32.984375
1695729177103,0.5175781,-1.5161743,-0.5894165,-58.5,-38.609375,15.484375
1695729177134,0.2290039,-1.1187134,-0.57818604,-32.4375,-8.8125,-30.34375
1695729177179,0.37060547,-1.4077759,-0.5215454,-23.375,-23.421875,-26.75
1695729177224,0.44067383,-1.4607544,-0.16851807,-64.515625,0.375,-42.265625
1695729177255,0.42041016,-1.9087524,0.06829834,-43.40625,-16.890625,-51.421875
1695729177300,-0.29882812,-0.802063,0.12225342,-17.71875,24.109375,-48.15625
1695729177345,-0.13964844,-0.10797119,-0.21783447,-63.671875,5.453125,-40.078125
1695729177382,-0.075683594,-0.15557861,-0.009338379,-13.234375,5.671875,-34.359375
1695729177418,-0.35913086,-0.9212036,0.06854248,-7.0625,-14.90625,-21.75
1695729177449,-0.13842773,-2.0,0.15496826,-21.6875,-20.609375,-5.234375
1695729177494,-0.048339844,-1.6489868,0.44647217,-47.4375,22.078125,-25.109375
1695729177541,-0.39624023,-0.4192505,-0.24053955,-5.546875,11.625,-4.65625
1695729177569,-0.46362305,-0.33746338,0.2514038,25.546875,7.765625,-9.46875
1695729177616,-0.26049805,-1.0916138,0.31658936,18.421875,-4.984375,-4.328125
1695729177658,-0.14038086,-1.3318481,0.22796631,-11.484375,8.671875,2.40625
1695729177689,-0.18481445,-0.95440674,0.20428467,-1.265625,-1.390625,-7.6875
1695729177735,-0.25195312,-0.70196533,0.14569092,-15.796875,-10.625,2.28125
1695729177764,-0.24511719,-0.90093994,0.2177124,15.03125,-0.40625,16.484375
1695729177810,-0.23364258,-1.0359497,0.26727295,2.96875,0.3125,14.375
1695729177854,-0.14648438,-0.86138916,0.23309326,12.046875,-2.9375,22.8125
1695729177883,-0.15429688,-0.8147583,0.19891357,27.484375,-7.96875,30.90625
1695729177928,-0.19042969,-0.9534302,0.113220215,18.203125,-3.09375,36.734375
1695729177974,-0.1550293,-0.99053955,0.08758545,22.921875,-1.03125,40.125
1695729178006,0.076416016,-1.2612915,0.04925537,26.6875,-0.078125,40.703125
1695729178049,0.061035156,-1.3394165,0.09588623,20.859375,1.96875,36.453125
1695729178079,0.07299805,-1.2183228,-0.23150635,-14.8125,-2.015625,24.921875
1695729178124,0.31201172,-1.0840454,-0.38311768,-11.671875,-2.125,9.453125
1695729178170,0.6467285,-1.430481,-0.10211182,20.703125,9.8125,14.515625
1695729178200,0.5065918,-1.4180298,-0.13800049,24.6875,-9.515625,2.265625
1695729178245,0.17700195,-1.4736938,-0.10626221,17.3125,2.15625,-8.078125
1695729178289,0.08691406,-1.3137817,-0.13311768,2.46875,7.5,-13.828125
1695729178320,0.30029297,-1.0808716,-0.15679932,-15.15625,6.828125,-20.5625
1695729178367,0.23925781,-0.9421997,-0.02154541,-9.515625,5.390625,-27.78125
1695729178393,0.017089844,-0.8789673,-0.018859863,-28.09375,4.140625,-42.78125
1695729178439,-0.006591797,-0.756897,-0.10748291,-41.546875,10.21875,-55.78125
1695729178485,0.11279297,-0.5886841,-0.30133057,-58.125,9.25,-58.65625
1695729178513,0.118896484,-0.51153564,0.17767334,-0.078125,9.3125,-45.015625
1695729178559,0.09399414,-0.53253174,0.054870605,-61.90625,4.359375,-42.15625
1695729178603,-0.1586914,-0.42559814,-0.07720947,-18.765625,-9.03125,-32.015625
1695729178635,-0.24780273,-0.6604614,0.070007324,-9.4375,0.109375,-12.046875
1695729178680,-0.20922852,-1.1033325,-0.020324707,-0.421875,-2.1875,-1.125
1695729178710,-0.23901367,-1.3872681,0.12200928,2.515625,5.0625,10.765625
1695729178756,-0.12768555,-0.95806885,0.101989746,8.109375,13.015625,2.28125
1695729178800,-0.05493164,-0.6248169,-0.057434082,22.171875,10.375,11.328125
1695729178829,-0.016601562,-0.59454346,-0.08087158,31.375,11.078125,35.3125
1695729178876,0.02368164,-0.6670532,0.022155762,61.28125,26.40625,52.140625
1695729178920,-0.03564453,-0.6331177,-0.08746338,65.875,16.6875,49.140625
1695729178949,0.060791016,-0.5274048,-0.21539307,75.59375,22.34375,49.0625
1695729178996,0.21582031,-0.4961548,-0.24737549,59.640625,-7.203125,50.921875
1695729179024,0.21508789,-0.69244385,-0.28131104,26.296875,-13.8125,40.21875
1695729179085,0.20043945,-0.88116455,-0.3460083,10.453125,-22.328125,40.390625
1695729179117,0.19921875,-1.1851196,-0.57769775,13.765625,-17.21875,29.734375
1695729179159,0.4819336,-1.3486938,-0.043762207,38.703125,12.5,34.234375
1695729179188,0.4621582,-1.36969,-0.43902588,-56.3125,-42.65625,14.796875
1695729179236,0.5161133,-1.4763794,-0.22320557,-40.40625,12.40625,-17.453125
1695729179266,0.49389648,-1.352356,-0.46759033,-39.046875,-48.46875,-42.3125
1695729179310,0.33813477,-1.3601685,-0.14093018,14.0625,0.890625,-63.578125
1695729179356,0.31469727,-1.1091919,-0.1843872,-44.265625,-7.03125,-51.453125
1695729179384,0.13427734,-0.9192505,-0.25933838,-25.671875,-2.34375,-51.09375
1695729179428,-0.0087890625,-0.6289673,0.05706787,-42.125,-5.5,-55.71875
1695729179459,-0.21533203,-0.59820557,0.27288818,-52.671875,9.8125,-41.359375
1695729179505,-0.42382812,-1.2930298,-0.11895752,-37.3125,-9.5625,-22.671875
1695729179549,-0.05834961,-1.4536743,0.23480225,1.421875,-11.859375,-15.3125
1695729179579,-0.30786133,-1.1099243,0.3624878,-14.484375,5.546875,-29.78125
1695729179625,-0.4633789,-0.829895,0.17254639,-24.40625,-5.6875,-19.34375
1695729179671,-0.46166992,-0.82159424,0.33587646,21.046875,9.65625,-12.125
1695729179699,-0.38549805,-0.7769165,0.2645874,-24.453125,3.65625,-9.640625
1695729179745,-0.33422852,-0.833313,0.34832764,7.109375,-1.15625,-11.015625
1695729179775,-0.40454102,-1.1045532,0.20379639,-15.90625,-14.25,-16.734375
1695729179819,-0.32495117,-1.005188,0.33270264,-8.578125,4.75,-8.890625
1695729179865,-0.25341797,-0.8362427,0.33026123,-7.75,-3.8125,3.53125
1695729179897,-0.2980957,-0.8731079,0.19256592,-4.953125,0.25,9.796875
1695729179940,-0.3786621,-0.8977661,0.30340576,19.640625,7.953125,12.65625
1695729179985,-0.32128906,-0.9204712,0.21063232,8.609375,-2.375,18.46875
1695729180019,-0.21118164,-0.8496704,0.2020874,14.0625,4.28125,24.421875
1695729180058,-0.17333984,-0.89141846,0.19110107,17.15625,0.1875,28.546875
1695729180134,-0.16479492,-0.88897705,0.19403076,21.140625,-2.875,33.296875
1695729180136,-0.1965332,-0.95928955,0.15228271,32.53125,2.765625,40.984375
1695729180178,-0.203125,-0.94732666,0.11566162,26.984375,-0.90625,38.796875
1695729180209,-0.14135742,-0.95635986,0.070739746,34.46875,-5.34375,50.609375
1695729180254,-0.12109375,-1.3157349,-0.14727783,39.203125,-7.4375,52.046875
1695729180299,0.08569336,-1.7930298,-0.10211182,53.546875,27.546875,43.8125
1695729180329,0.23461914,-1.6004028,-0.13360596,25.28125,-1.140625,17.609375
1695729180375,0.38623047,-1.2608032,-0.5261841,-0.125,20.5625,3.15625
1695729180403,0.6411133,-1.2688599,-0.4746704,7.234375,12.90625,10.921875
1695729180464,0.37890625,-1.5230103,0.035339355,18.640625,0.828125,-4.8125
1695729180508,-0.09008789,-1.3154907,-0.19171143,-50.0625,8.375,-27.328125
1695729180538,0.080078125,-0.7744751,-0.35308838,-30.3125,16.46875,-38.921875
1695729180569,0.31323242,-0.62872314,-0.1897583,-27.359375,4.046875,-40.671875
1695729180615,0.18261719,-0.5449829,-0.15631104,-33.984375,4.953125,-39.4375
1695729180644,-0.08154297,-0.53692627,-0.08795166,-52.90625,5.484375,-41.171875
1695729180689,0.033203125,-0.5730591,-0.03302002,-36.1875,6.484375,-48.15625
1695729180720,0.045654297,-0.5227661,-0.0051879883,-44.59375,4.390625,-34.3125
1695729180768,0.064453125,-0.4932251,-0.06109619,-19.65625,-0.125,-16.65625
1695729180809,0.0087890625,-0.74420166,-0.057922363,-5.625,-2.65625,-3.78125
1695729180839,-0.12597656,-1.1150513,-0.022521973,8.78125,0.640625,-0.4375
1695729180887,-0.059814453,-1.0913696,0.08416748,8.3125,2.4375,0.15625
1695729180931,0.04736328,-0.7107544,0.082214355,12.6875,13.40625,16.90625
1695729180958,-0.02368164,-0.54937744,0.023620605,49.234375,27.890625,31.203125
1695729181006,-0.3022461,-0.8440552,-0.3826294,45.953125,13.203125,32.984375
1695729181037,0.36010742,-0.82769775,-0.15582275,62.875,15.515625,32.171875
1695729181080,0.47265625,-0.6309204,-0.006652832,69.421875,-3.65625,34.40625
1695729181124,0.08227539,-0.53448486,-0.097961426,37.578125,-25.9375,32.84375
1695729181154,-0.07763672,-0.4343872,-0.2901001,17.796875,-35.703125,42.921875
1695729181200,-0.029296875,-0.7456665,-0.33355713,2.609375,-34.765625,31.4375
1695729181243,0.20019531,-1.3623657,-0.24371338,30.46875,5.125,10.59375
1695729181274,0.36572266,-1.8262329,-0.2185669,-23.078125,-11.265625,7.84375
1695729181322,0.3491211,-1.2839966,-0.28424072,-45.171875,6.828125,4.203125
1695729181351,0.3815918,-1.2893677,-0.53009033,-21.421875,-13.984375,-18.890625
1695729181397,0.34448242,-1.6306763,-0.12042236,-30.4375,1.265625,-32.96875
1695729181442,0.025146484,-1.2637329,-0.175354,-45.671875,-10.375,-41.78125
1695729181470,0.0949707,-1.2190552,-0.18292236,-28.109375,-5.296875,-29.921875
1695729181515,0.2055664,-1.3892212,0.08709717,-15.03125,-23.96875,-22.921875
1695729181559,-0.09741211,-1.0628052,0.13861084,-31.375,-8.015625,-57.8125
1695729181590,-0.20922852,-0.59942627,-0.1362915,-52.828125,13.765625,-55.484375
1695729181636,-0.1315918,-0.34747314,-0.06817627,-27.828125,6.65625,-31.75
1695729181665,-0.16357422,-0.52227783,0.17816162,0.03125,5.984375,-13.9375
1695729181710,-0.064208984,-0.958313,0.184021,8.953125,-7.203125,0.390625
1695729181754,-0.15478516,-2.0,0.24212646,-12.453125,-21.03125,-18.359375
1695729181784,-0.49047852,-1.3723755,0.30462646,-52.109375,6.875,-43.453125
1695729181828,-0.532959,-0.5286255,-0.007385254,-43.96875,26.984375,-30.59375
1695729181875,-0.3798828,-0.21392822,0.43621826,42.5625,36.015625,-13.734375
1695729181904,-0.40795898,-1.019104,0.43182373,10.578125,18.3125,0.5
1695729181950,-0.45507812,-1.1585083,0.43963623,16.59375,12.5,-1.953125
1695729181979,-0.35717773,-1.0256958,0.42034912,26.1875,17.96875,-1.578125
1695729182026,-0.36938477,-0.60284424,0.28948975,-25.625,1.734375,10.140625
1695729182070,-0.4248047,-0.7962036,0.25286865,20.53125,-15.234375,11.609375
1695729182099,-0.42211914,-1.1873169,0.31463623,17.46875,-17.171875,13.125
1695729182144,-0.30444336,-0.99884033,0.30877686,-4.609375,-9.5625,10.171875
1695729182189,-0.24047852,-0.77838135,0.184021,1.546875,-12.296875,15.65625
1695729182219,-0.2758789,-0.8464966,0.12835693,12.140625,-20.0625,23.578125
1695729182265,-0.27929688,-0.88946533,0.2164917,23.4375,-19.671875,36.65625
1695729182294,-0.25512695,-1.0535278,0.20257568,35.609375,-3.984375,48.265625
1695729182340,-0.14868164,-1.1113892,0.08465576,30.828125,6.5,29.625
1695729182384,-0.10180664,-1.2390747,0.015808105,59.03125,10.421875,30.75
1695729182414,-0.041748047,-1.5059204,-0.053771973,46.984375,-9.703125,21.046875
1695729182460,-0.064453125,-1.2356567,-0.3110962,51.28125,-15.25,10.890625
1695729182504,0.059814453,-1.2722778,-0.51763916,-1.765625,7.5625,15.328125
1695729182533,0.30126953,-1.3328247,-0.37164307,-18.90625,-10.828125,2.796875
1695729182581,0.24438477,-1.6182251,-0.28033447,6.546875,-5.375,2.90625
1695729182608,-0.09375,-1.4146118,-0.06939697,-14.1875,15.640625,-17.40625
1695729182653,-0.021728516,-1.0066528,-0.21612549,-60.390625,23.21875,-29.125
1695729182699,0.11328125,-0.69122314,-0.25250244,-48.25,14.625,-28.78125
1695729182728,0.047607422,-0.63116455,-0.0056762695,-28.328125,6.390625,-25.578125
1695729182774,-0.14990234,-0.61602783,0.049743652,-37.796875,9.15625,-30.390625
1695729182820,-0.125,-0.56207275,0.01727295,-39.515625,14.0625,-33.765625
1695729182849,-0.061279297,-0.4673462,0.03265381,-30.09375,13.546875,-27.203125
1695729182895,0.0021972656,-0.52130127,-0.054992676,-11.875,7.171875,-18.25
1695729182925,0.0031738281,-0.74420166,-0.07745361,0.328125,7.71875,-1.6875
1695729182971,0.026611328,-1.1660767,-0.002746582,9.4375,-5.390625,1.3125
1695729183013,0.011474609,-1.2556763,0.051696777,14.34375,-6.109375,6.703125
1695729183043,-0.17822266,-0.8418579,-0.04937744,13.46875,5.96875,16.390625
1695729183089,-0.22949219,-0.5996704,-0.09991455,28.671875,12.21875,19.171875
1695729183135,-0.06542969,-0.46636963,-0.1506958,43.703125,15.953125,32.03125
1695729183164,0.09106445,-0.4649048,-0.120666504,65.859375,19.34375,48.3125
1695729183208,0.18896484,-0.52423096,-0.19073486,56.03125,-2.609375,48.9375
1695729183255,0.33007812,-0.6555786,-0.3032837,42.640625,-31.828125,35.8125
1695729183284,0.106933594,-0.7625122,-0.04107666,44.828125,-39.296875,35.859375
1695729183329,-0.19018555,-1.0828247,-0.1885376,-18.21875,-36.4375,35.0
1695729183360,-0.17553711,-1.3215942,-0.27593994,1.34375,8.25,-6.015625
1695729183403,0.421875,-1.6172485,-0.2612915,-17.46875,2.484375,-18.328125
1695729183448,0.49365234,-1.6140747,-0.22076416,-12.671875,-5.328125,-12.734375
1695729183479,0.576416,-1.1924438,-0.33673096,-52.984375,-16.25,-33.84375
1695729183525,-0.016601562,-1.0064087,-0.27105713,-15.875,-21.25,-45.53125
1695729183570,-0.095458984,-1.7893677,-0.27642822,-12.75,-15.640625,-36.515625
1695729183600,-0.31835938,-1.8069458,0.40374756,-55.9375,37.828125,-54.21875
1695729183644,-0.12182617,-0.6506958,-0.255188,-99.84375,39.234375,-68.40625
1695729183675,-0.009277344,-0.008117676,0.022644043,-42.1875,13.953125,-27.0625
1695729183719,-0.125,-0.43707275,0.25897217,9.96875,-13.546875,-4.03125
1695729183764,-0.3955078,-1.1643677,0.19866943,5.40625,-16.90625,-3.03125
1695729183794,-0.4387207,-1.788147,0.14007568,-24.46875,-0.671875,-36.84375
1695729183840,-0.28637695,-1.0029907,0.2929077,-40.859375,8.0625,-39.25
1695729183885,-0.41430664,-0.7490845,0.36053467,-26.0,31.8125,-18.796875
1695729183914,-0.5529785,-0.53863525,0.5187378,18.9375,18.546875,-6.8125
1695729183960,-0.5578613,-0.8015747,0.40472412,-10.3125,1.078125,-9.71875
1695729183988,-0.4345703,-1.1465454,0.54315186,-3.53125,0.640625,-4.640625
1695729184034,-0.43652344,-0.87823486,0.4039917,-18.796875,9.8125,-10.5
1695729184081,-0.41088867,-0.6904907,0.4923706,-2.96875,5.203125,-0.671875
1695729184108,-0.37353516,-0.8076782,0.45428467,1.75,2.640625,10.828125
1695729184156,-0.50341797,-0.9619751,0.45526123,19.125,-3.0625,10.375
1695729184201,-0.40429688,-0.83380127,0.387146,5.234375,-1.953125,8.765625
1695729184229,-0.32714844,-0.80474854,0.33953857,18.40625,-5.421875,19.03125
1695729184275,-0.35839844,-0.8850708,0.37054443,19.203125,-18.1875,22.625
1695729184304,-0.33666992,-0.8789673,0.32025146,10.796875,-33.78125,23.53125
1695729184349,-0.3918457,-0.9170532,0.27337646,23.796875,-29.578125,35.34375
1695729184395,-0.27294922,-0.94000244,0.24163818,27.0,-23.375,38.703125
1695729184424,-0.2758789,-0.9854126,0.13568115,9.625,-6.34375,45.203125
1695729184469,-0.24487305,-0.87042236,0.16522217,37.703125,3.53125,43.890625
1695729184546,-0.1965332,-1.1558228,0.046325684,49.5,2.125,48.984375
1695729184548,-0.23413086,-1.5845337,0.00579834,59.46875,19.53125,58.46875
1695729184590,-0.15673828,-1.3308716,-0.16656494,-10.921875,20.34375,22.46875
1695729184619,0.3239746,-1.2190552,-0.3435669,19.25,24.125,-12.265625
1695729184666,0.8269043,-1.5349731,-0.29156494,43.125,21.1875,-4.1875
1695729184709,0.32226562,-1.6428833,-0.023010254,22.28125,9.765625,15.59375
1695729184739,-0.2277832,-1.1338501,-0.17437744,-32.109375,13.890625,-6.03125
1695729184785,-0.13842773,-0.74176025,-0.3435669,-20.96875,9.703125,-32.9375
1695729184829,0.21362305,-0.82818604,-0.14971924,-11.65625,5.734375,-26.734375
1695729184860,0.1784668,-0.91412354,0.0021362305,-33.34375,5.953125,-22.890625
1695729184905,-0.03125,-0.81988525,-0.09576416,-42.953125,5.359375,-37.484375
1695729184935,-0.1352539,-0.59381104,-0.10333252,-34.734375,3.671875,-41.046875
1695729184980,-0.044433594,-0.47003174,-0.0791626,-29.515625,6.1875,-25.8125
1695729185025,0.021728516,-0.45733643,-0.01763916,-2.375,6.375,-8.0625
1695729185057,-0.055908203,-0.66192627,0.00579834,-8.359375,3.671875,-3.75
1695729185100,-0.12573242,-0.987854,-0.047424316,-1.328125,-7.171875,-3.6875
1695729185145,-0.015136719,-1.1497192,0.043151855,1.453125,-0.53125,2.84375
1695729185176,-0.050048828,-0.8633423,-0.11627197,11.25,-1.0,15.328125
1695729185221,-0.16967773,-0.7901001,-0.22711182,22.0625,7.8125,20.8125
1695729185255,-0.045166016,-0.70318604,-0.07159424,38.890625,5.9375,24.984375
1695729185295,0.024414062,-0.70098877,-0.19732666,37.46875,1.78125,28.84375
1695729185339,0.1003418,-0.8206177,-0.054016113,31.1875,12.484375,30.578125
1695729185369,0.08325195,-0.7715454,0.1395874,27.109375,-5.015625,34.3125
1695729185415,0.087890625,-0.61383057,-0.20269775,5.859375,-7.65625,23.59375
1695729185459,-0.030761719,-0.62457275,-0.1765747,17.015625,-2.234375,34.40625
1695729185489,0.021484375,-0.8123169,-0.113098145,29.8125,-7.59375,37.21875
1695729185535,0.15673828,-1.1074829,-0.19781494,-5.890625,-6.03125,12.15625
1695729185565,0.27856445,-1.2700806,-0.12677002,-2.921875,6.6875,22.078125
1695729185608,0.3239746,-1.2764282,-0.28668213,-24.078125,-7.625,6.359375
1695729185655,0.059570312,-1.2630005,-0.3320923,-17.859375,-7.46875,-2.21875
1695729185685,0.21777344,-1.5105591,-0.17510986,-21.6875,5.21875,-13.5625
1695729185730,0.13964844,-1.3606567,-0.2625122,-22.40625,4.640625,-33.296875
1695729185774,0.34448242,-1.4072876,-0.17266846,-16.75,9.03125,-41.8125
1695729185806,0.26733398,-1.3203735,0.007507324,-22.625,2.96875,-18.921875
1695729185852,0.18408203,-1.1419067,-0.14605713,-38.890625,-0.71875,-43.46875
1695729185880,-0.06762695,-1.1370239,0.029968262,-33.6875,-1.625,-42.5
1695729185925,-0.08642578,-0.66412354,-0.09869385,-14.3125,23.609375,-38.78125
1695729185969,0.039794922,-0.5039673,-0.05621338,-11.59375,17.859375,-40.25
1695729186000,0.0847168,-0.60821533,0.17254639,-23.34375,8.109375,-6.953125
1695729186045,-0.18066406,-0.7258911,0.18572998,-35.796875,-23.828125,-3.96875
1695729186089,-0.5319824,-1.7922974,0.3036499,-21.484375,-18.53125,-0.703125
1695729186121,-0.7145996,-1.4312134,0.3414917,-34.59375,6.75,-61.734375
1695729186164,-0.5917969,-0.25738525,0.13641357,-50.890625,75.421875,-25.40625
1695729186194,-0.12109375,-0.13873291,0.4022827,31.46875,3.890625,-13.859375
1695729186240,-0.08178711,-1.0671997,0.5770874,-2.65625,-16.640625,9.03125
1695729186284,-0.46972656,-1.4229126,0.5585327,-6.09375,-10.953125,4.828125
1695729186313,-0.5168457,-0.928772,0.3998413,-37.109375,-4.390625,-25.34375
1695729186360,-0.45654297,-0.47540283,0.43133545,-27.21875,-4.09375,-8.140625
1695729186405,-0.47021484,-0.68341064,0.5126343,20.34375,4.1875,11.6875
1695729186435,-0.43896484,-1.0386353,0.4923706,-0.609375,-4.625,5.625
1695729186480,-0.3293457,-0.85040283,0.4940796,7.125,-1.125,-2.96875
1695729186509,-0.39135742,-0.7632446,0.35394287,11.03125,-0.71875,11.03125
1695729186555,-0.34472656,-0.803772,0.4093628,18.078125,-8.265625,11.84375
1695729186599,-0.3425293,-0.90704346,0.4628296,27.34375,-7.421875,17.921875
1695729186629,-0.3774414,-0.9553833,0.28338623,32.984375,3.625,25.859375
1695729186676,-0.19067383,-0.85162354,0.2772827,18.875,-13.0,23.578125
1695729186721,-0.23730469,-0.79888916,0.20452881,28.25,-24.6875,33.703125
1695729186749,-0.34033203,-0.97491455,0.05218506,37.46875,-33.078125,41.59375
1695729186794,-0.28442383,-1.128479,0.047058105,16.4375,-10.703125,43.859375
1695729186823,0.08959961,-1.342102,0.116882324,50.8125,13.75,40.3125
1695729186869,0.099609375,-1.6577759,0.17230225,4.046875,2.640625,31.453125
1695729186915,-0.26220703,-1.3247681,-0.24859619,25.296875,-6.625,18.0625
1695729186944,0.35717773,-1.109436,-0.33673096,17.625,-22.28125,21.90625
1695729186988,0.5058594,-1.1526489,-0.11016846,6.75,9.546875,11.75
1695729187035,0.008300781,-1.630188,-0.061584473,-17.578125,3.6875,-6.75
1695729187066,0.07763672,-1.3862915,-0.055725098,-24.546875,13.78125,-15.4375
1695729187109,0.19360352,-0.86187744,-0.04547119,-2.609375,0.78125,-13.109375
1695729187139,0.009765625,-0.8008423,-0.011291504,-3.75,-5.53125,-20.921875
1695729187184,-0.16503906,-0.8213501,-0.0017700195,-18.234375,7.4375,-37.953125
1695729187229,-0.11987305,-0.75177,-0.062316895,-25.296875,19.609375,-39.265625
1695729187259,0.055908203,-0.6133423,-0.037902832,-32.6875,14.359375,-35.53125
1695729187305,0.076660156,-0.5083618,0.03265381,-29.53125,14.796875,-34.421875
1695729187349,0.010986328,-0.6243286,9.1552734E-4,-26.609375,6.53125,-25.03125
1695729187380,-0.09765625,-0.7463989,0.035583496,-15.234375,4.625,-15.671875
1695729187425,-0.119140625,-0.97076416,-0.027648926,14.1875,-9.53125,-2.5
1695729187470,-0.15258789,-1.1372681,0.058532715,3.203125,2.6875,7.703125
1695729187499,-0.28564453,-0.98150635,0.05657959,6.234375,6.09375,2.40625
1695729187545,-0.18945312,-0.8257446,-0.028381348,5.859375,16.828125,-2.03125
1695729187576,4.8828125E-4,-0.725647,-0.024963379,27.421875,-0.328125,14.1875
1695729187620,0.008056641,-0.76031494,-0.008117676,36.53125,7.3125,27.625
1695729187664,0.009033203,-0.6367798,-0.10455322,42.140625,2.828125,31.796875
1695729187694,-0.0703125,-0.49884033,-0.097229004,67.96875,13.578125,40.875
1695729187743,0.034179688,-0.47540283,-0.17681885,71.25,8.484375,49.421875
1695729187785,0.20166016,-0.5977173,-0.25543213,37.5625,-29.03125,37.984375
1695729187815,0.122802734,-0.6890259,-0.20074463,36.453125,-24.078125,34.265625
1695729187859,0.19262695,-1.1272583,-0.3381958,4.640625,-23.609375,37.484375
1695729187888,0.051513672,-1.6401978,-0.2732544,2.46875,0.953125,13.5625
1695729187935,0.10913086,-1.3862915,-0.38970947,-37.765625,-17.0,-2.203125
1695729187979,0.34326172,-1.2090454,-0.41827393,-35.984375,9.71875,-8.90625
1695729188009,0.6291504,-1.3775024,-0.19195557,-29.765625,-20.921875,-14.109375
1695729188056,0.12402344,-1.3760376,-0.23760986,-77.09375,-19.0625,-44.625
1695729188099,0.23071289,-1.8103638,-0.022521973,-25.1875,-19.265625,-50.796875
1695729188129,-0.048339844,-1.1709595,0.2189331,-47.828125,-10.453125,-65.90625
1695729188175,-0.04272461,-0.17852783,0.054382324,-44.078125,9.625,-43.375
1695729188251,-0.35620117,-0.19146729,-0.20587158,-17.328125,14.703125,-5.0
1695729188257,-0.22021484,-0.7942505,0.15765381,33.84375,10.125,-3.484375
1695729188293,-0.018066406,-1.9312134,0.36688232,-21.015625,-19.25,3.71875
1695729188325,0.06323242,-1.7478638,0.36639404,-41.484375,-0.34375,-36.875
1695729188368,-0.5187988,-0.78692627,0.12030029,-29.453125,9.0625,-47.78125
1695729188415,-0.6340332,-0.4290161,0.20159912,-37.375,11.109375,-29.15625
1695729188448,-0.33911133,-0.61798096,0.4093628,13.546875,10.75,-4.625
1695729188489,-0.19946289,-1.0977173,0.48846436,33.34375,-0.96875,11.28125
1695729188520,-0.24951172,-1.3516235,0.3444214,-7.578125,9.125,-18.1875
1695729188566,-0.4345703,-0.7007446,0.42523193,3.609375,8.953125,-16.359375
1695729188609,-0.34985352,-0.5586548,0.28778076,-22.5,-10.53125,-4.046875
1695729188640,-0.3022461,-0.8081665,0.38812256,12.828125,-20.671875,14.03125
1695729188685,-0.39379883,-1.0501099,0.3632202,2.328125,-10.421875,17.078125
1695729188730,-0.34716797,-0.9434204,0.33392334,12.9375,1.921875,21.9375
1695729188760,-0.31689453,-0.88165283,0.24383545,21.53125,7.046875,23.09375
1695729188805,-0.20239258,-0.8989868,0.24749756,40.734375,1.390625,22.25
1695729188836,-0.17016602,-0.97540283,0.1305542,28.140625,-5.40625,24.828125
1695729188882,-0.21582031,-0.89923096,0.13543701,23.734375,-10.921875,25.15625
1695729188928,-0.09423828,-0.96881104,0.11199951,18.875,-21.8125,32.546875
1695729188955,-0.0637207,-1.0012817,0.04534912,4.390625,-15.03125,37.46875
1695729189000,-0.15063477,-1.1790161,0.016296387,22.359375,7.234375,36.484375
1695729189045,-0.038330078,-1.4575806,-0.009338379,8.96875,9.25,35.03125
1695729189075,-0.04272461,-1.4644165,-0.11553955,4.1875,8.953125,20.609375
1695729189120,0.3227539,-1.2766724,-0.066223145,42.296875,17.65625,21.453125
1695729189150,0.5686035,-1.2151489,-0.12188721,34.203125,-5.671875,-5.203125
1695729189194,0.2854004,-1.125061,-0.21148682,6.296875,2.09375,-9.71875
1695729189242,0.020263672,-1.2490845,-0.24224854,-0.03125,14.9375,-5.203125
1695729189270,-0.076171875,-1.4041138,-0.21270752,-3.546875,7.828125,-15.578125
1695729189319,0.11767578,-1.229065,-0.05718994,-15.53125,4.65625,-29.03125
1695729189360,0.1508789,-0.9961548,-0.01373291,-33.828125,10.015625,-30.484375
1695729189390,-0.004638672,-0.59161377,-0.12823486,-32.0625,14.828125,-32.328125
1695729189434,-0.11376953,-0.40948486,-0.16583252,-19.796875,17.65625,-37.453125
1695729189463,0.07495117,-0.59161377,-0.108947754,-28.109375,19.765625,-39.46875
1695729189508,0.041015625,-0.8101196,-0.02911377,-17.015625,13.8125,-26.328125
1695729189556,-0.09326172,-0.88726807,-0.050598145,-27.234375,10.6875,-22.078125
1695729189584,-0.11450195,-0.76446533,-0.101623535,-17.375,-2.03125,-17.265625
1695729189628,-0.01586914,-0.79400635,-0.14141846,-0.828125,17.25,-3.640625
1695729189675,0.005859375,-0.7385864,-0.2000122,5.5,17.046875,7.5
1695729189706,-0.13647461,-0.7283325,-0.22955322,19.890625,1.90625,8.9375
1695729189749,-0.043945312,-0.7337036,-0.19683838,20.859375,-11.625,14.84375
1695729189779,0.083496094,-0.5654907,-0.024230957,29.15625,-17.390625,28.859375
1695729189825,0.025634766,-0.39190674,-0.117492676,40.796875,-24.859375,35.421875
1695729189871,-0.03173828,-0.55596924,-0.10406494,22.21875,-25.1875,41.71875
1695729189899,-0.15283203,-0.6499634,-0.04083252,51.484375,-17.203125,43.78125
1695729189945,-0.15429688,-1.03302,-0.10308838,13.1875,-15.953125,18.046875
1695729189990,-0.08203125,-1.4070435,-0.24639893,7.546875,-5.1875,5.515625
1695729190019,0.4790039,-1.7903442,-0.2630005,-20.125,6.109375,15.359375
1695729190065,0.49023438,-1.4280396,-0.033996582,-25.359375,-24.46875,-6.8125
1695729190094,-0.063964844,-1.1983032,-0.2774048,-41.453125,-18.65625,-28.671875
1695729190139,-0.39501953,-1.3279419,-0.17266846,-8.53125,-3.296875,-33.09375
1695729190186,0.072509766,-1.1968384,0.16619873,-21.3125,1.875,-36.4375
1695729190215,0.22583008,-1.2820435,0.19500732,-23.953125,4.421875,-16.40625
1695729190261,-0.025146484,-0.86798096,0.117614746,-33.1875,9.796875,-30.390625
1695729190305,-0.49902344,-0.8850708,0.05316162,-10.015625,3.421875,-22.5
1695729190334,-0.39819336,-0.86798096,-0.10992432,-60.90625,6.15625,-19.34375
1695729190378,-0.2277832,-1.5081177,0.20062256,-17.015625,-2.046875,-11.265625
1695729190408,-0.40576172,-1.1397095,0.23675537,4.421875,6.5625,-41.15625
1695729190455,-0.47314453,-0.8718872,0.26409912,6.84375,39.0,-32.9375
1695729190500,-0.37719727,-0.7583618,0.4052124,9.75,41.46875,-21.28125
1695729190528,-0.27172852,-0.6824341,0.38812256,9.890625,-3.03125,3.421875
1695729190575,-0.37670898,-0.8623657,0.3065796,-6.15625,-13.25,2.234375
1695729190620,-0.42504883,-1.0894165,0.30999756,-13.15625,-6.8125,-6.609375
1695729190649,-0.4855957,-0.9146118,0.32366943,1.34375,0.265625,-2.9375
1695729190696,-0.34301758,-0.7258911,0.21697998,-18.59375,-3.59375,3.0625
1695729190729,-0.26000977,-0.8599243,0.2658081,4.90625,-10.828125,18.21875
1695729190768,-0.42236328,-1.1079712,0.35491943,2.890625,-11.46875,25.8125
1695729190816,-0.47021484,-1.0256958,0.13739014,-26.484375,-7.984375,12.015625
1695729190845,-0.3774414,-0.8882446,0.27996826,23.5625,1.3125,14.359375
1695729190892,-0.28222656,-0.72540283,0.2843628,6.4375,-2.296875,24.234375
1695729190932,-0.12060547,-0.75250244,0.25994873,19.125,-6.125,35.1875
1695729190964,-0.14038086,-0.8870239,0.044128418,18.703125,-9.484375,42.4375
1695729191008,-0.1340332,-1.0281372,0.086120605,33.5625,0.515625,38.84375
1695729191039,-0.059814453,-1.2451782,0.12908936,35.734375,4.0625,38.125
1695729191087,-0.05029297,-1.2319946,-0.015686035,23.8125,14.34375,24.5625
1695729191130,0.017333984,-1.1643677,-0.117492676,14.890625,18.03125,30.9375
1695729191159,0.17651367,-1.2122192,0.015808105,34.046875,9.765625,35.46875
1695729191203,0.35888672,-1.4180298,-0.1519165,28.578125,1.40625,11.609375
1695729191250,0.4008789,-1.4160767,-0.2852173,3.140625,8.234375,-1.453125
1695729191279,0.25195312,-1.4395142,-0.16802979,11.09375,0.359375,10.0
1695729191325,0.021728516,-1.3023071,-0.15899658,-1.703125,1.609375,-6.328125
1695729191355,0.068603516,-1.1104126,-0.1675415,-17.984375,7.046875,-13.109375
1695729191399,0.2800293,-0.9282837,-0.1104126,-26.703125,11.921875,-23.546875
1695729191445,0.14135742,-0.8196411,-0.05206299,-26.359375,1.609375,-27.765625
1695729191476,-0.029785156,-0.7214966,-0.0044555664,-25.890625,14.4375,-38.359375
1695729191520,-0.056152344,-0.63360596,-0.05206299,-23.453125,10.234375,-46.71875
1695729191564,0.0056152344,-0.67755127,-0.07476807,-29.25,15.6875,-37.953125
1695729191596,-0.076171875,-0.7944946,-0.055725098,-20.78125,8.375,-26.765625
1695729191640,-0.057128906,-0.8093872,0.034118652,-18.765625,8.5625,-23.15625
1695729191688,-0.017333984,-0.7046509,0.027770996,-15.84375,-0.390625,-21.328125
1695729191715,-0.12768555,-0.68048096,-0.023742676,-6.453125,-0.125,-21.03125
1695729191760,-0.21948242,-0.9006958,-0.12896729,4.203125,1.6875,-3.859375
1695729191789,-0.19262695,-1.0925903,-0.06500244,14.890625,15.90625,6.734375
1695729191834,-0.25341797,-0.79888916,-0.08526611,21.375,14.21875,4.5625
1695729191895,-0.072021484,-0.75909424,-0.16168213,33.546875,16.9375,10.953125
1695729191925,0.15161133,-0.6802368,-0.027160645,42.90625,16.609375,32.359375
1695729191959,0.052734375,-0.49127197,-0.1987915,54.46875,-10.390625,45.53125
1695729192000,0.13110352,-0.51641846,-0.28326416,65.890625,-8.25,44.984375
1695729192030,0.15844727,-0.7241821,-0.15997314,41.625,-46.3125,51.8125
1695729192105,0.0014648438,-0.77227783,-0.109191895,18.109375,-55.34375,37.34375
1695729192108,-0.25073242,-1.0274048,-0.28009033,0.09375,-27.328125,19.390625
1695729192152,-0.07543945,-1.232727,-0.32183838,-10.4375,1.421875,-3.5
1695729192194,0.2836914,-1.4155884,-0.24078369,-30.90625,-10.296875,-7.53125
1695729192223,0.39868164,-1.3838501,-0.074279785,-6.484375,22.71875,-1.03125
1695729192272,0.2277832,-1.347229,-0.3579712,-52.09375,-21.078125,-7.25
1695729192314,0.24731445,-1.3765259,-0.18707275,-48.375,-13.40625,-27.25
1695729192343,0.048583984,-1.2163696,-0.022033691,-19.359375,-1.546875,-31.75
1695729192389,0.033935547,-1.2481079,0.0026245117,-30.484375,7.703125,-45.578125
1695729192419,0.12573242,-1.1763306,0.1461792,-6.671875,-1.890625,-22.9375
1695729192466,0.008300781,-0.7034302,0.18426514,-3.6875,2.78125,-17.6875
1695729192509,-0.25512695,-0.77716064,0.0138549805,-61.890625,-3.3125,-37.890625
1695729192540,-0.34228516,-0.93096924,0.078308105,-64.765625,-2.859375,-33.9375
1695729192585,-0.22241211,-1.7295532,0.20892334,-8.65625,-3.25,-12.484375
1695729192660,-0.2915039,-1.366272,0.34417725,-17.765625,14.40625,-49.625
1695729192664,-0.71313477,-0.50323486,0.40985107,-12.71875,55.78125,-49.203125
1695729192705,-0.3491211,-0.17193604,0.26239014,-30.03125,-1.09375,-3.1875
1695729192735,-0.19067383,-0.487854,0.42059326,3.59375,-11.3125,2.890625
1695729192780,-0.45898438,-1.5401001,0.41693115,14.28125,-14.203125,-11.78125
1695729192825,-0.4411621,-1.1226196,0.5404663,-14.53125,-4.0625,-13.53125
1695729192858,-0.40820312,-0.5523071,0.3024292,-36.703125,1.46875,-4.75
1695729192899,-0.4255371,-0.6675415,0.4491577,19.75,-1.625,5.09375
1695729192945,-0.45214844,-0.9717407,0.5392456,13.078125,0.703125,17.46875
1695729192975,-0.38085938,-0.8994751,0.4147339,-10.703125,-8.046875,7.59375
1695729193020,-0.44506836,-0.8994751,0.37225342,23.1875,8.75,12.265625
1695729193049,-0.36254883,-0.86260986,0.38812256,10.53125,-0.5,14.296875
1695729193096,-0.25341797,-0.84552,0.3234253,11.28125,-6.21875,22.5
1695729193140,-0.3449707,-0.92633057,0.32977295,33.203125,0.078125,28.515625
1695729193169,-0.3293457,-0.9307251,0.31488037,16.796875,-15.40625,24.6875
1695729193215,-0.26611328,-0.79815674,0.30950928,24.03125,-23.578125,33.859375
1695729193258,-0.20654297,-0.87164307,0.14788818,27.796875,-10.5,38.671875
1695729193288,-0.032714844,-0.8726196,0.13323975,36.5,-6.484375,38.59375
1695729193336,-0.06762695,-1.3252563,0.02166748,56.8125,4.09375,40.09375
1695729193367,-0.037353516,-1.8120728,-0.049621582,33.90625,8.828125,25.765625
1695729193408,-0.044189453,-1.3660278,-0.13140869,11.90625,5.734375,25.53125
1695729193455,0.2565918,-1.0842896,-0.33062744,10.125,4.453125,27.515625
1695729193485,0.43676758,-1.3980103,-0.3274536,13.078125,-11.28125,5.5625
1695729193530,0.27685547,-1.6504517,-0.15509033,11.0625,-1.875,-7.28125
1695729193574,-0.11328125,-1.258606,-0.026184082,-8.515625,7.109375,-7.9375
1695729193605,-0.15576172,-0.7698364,-0.16680908,-17.546875,10.484375,-7.265625
1695729193650,0.13671875,-0.71051025,-0.17681885,-16.75,13.84375,-24.625
1695729193679,0.29858398,-0.91656494,0.014099121,-25.6875,7.125,-43.75
1695729193725,0.07006836,-0.91363525,-0.012512207,-37.1875,5.625,-39.328125
1695729193769,-0.15185547,-0.6748657,-0.13116455,-38.265625,4.0625,-30.421875
1695729193800,-0.14038086,-0.4348755,-0.07745361,-42.8125,9.46875,-28.421875
1695729193845,0.029296875,-0.4841919,-0.008117676,-16.0625,6.890625,-27.4375
1695729193890,-0.009033203,-0.6958618,0.09515381,-10.34375,4.90625,-10.4375
1695729193920,-0.09887695,-0.96539307,0.046569824,-2.84375,-10.359375,4.859375
1695729193967,0.07739258,-1.0752563,0.006286621,-2.578125,14.109375,8.734375
1695729194005,-0.17114258,-0.9368286,0.034362793,20.875,5.1875,11.96875
1695729194039,-0.20141602,-0.8760376,-0.0335083,20.109375,19.84375,15.046875
1695729194084,-0.009033203,-0.675354,0.014099121,37.5,24.71875,21.796875
1695729194122,0.045166016,-0.6211548,-0.16021729,35.328125,20.8125,21.0625
1695729194159,0.18359375,-0.6851196,-0.28131104,35.40625,-2.78125,24.390625
1695729194203,0.27929688,-0.7485962,-0.09161377,47.90625,-22.921875,29.453125
1695729194233,0.064208984,-0.6616821,0.020935059,14.875,-29.078125,31.421875
1695729194284,-0.23779297,-0.6968384,-0.1182251,5.5,-6.34375,27.09375
1695729194309,-0.11621094,-0.7463989,-0.18707275,4.125,7.671875,25.734375
1695729194356,0.05908203,-1.0776978,-0.3748169,7.8125,0.125,18.390625
1695729194400,0.69311523,-1.6367798,-0.07696533,18.1875,15.296875,0.921875
1695729194429,0.36645508,-1.4771118,-0.16778564,-44.703125,-28.734375,5.125
1695729194475,0.17236328,-1.2293091,-0.24957275,-72.546875,-15.140625,-26.28125
1695729194520,-0.06738281,-1.1983032,-0.03277588,0.375,0.9375,-46.109375
1695729194549,0.1262207,-1.4307251,-0.013000488,-38.84375,-12.09375,-37.421875
1695729194598,0.29052734,-1.6768188,0.42962646,-23.484375,-6.96875,-18.421875
1695729194625,-0.2512207,-1.3589478,0.25408936,-50.0,-9.296875,-58.109375
1695729194669,-0.34301758,-0.84820557,-0.1843872,-68.375,2.90625,-53.265625
1695729194716,0.0036621094,-0.41485596,0.11639404,-40.359375,4.8125,-29.640625
1695729194745,-0.033447266,-0.5022583,0.3883667,-12.109375,7.578125,-28.109375
1695729194789,-0.42895508,-1.0081177,0.2526245,3.53125,2.421875,-12.890625
1695729194835,-0.34204102,-1.6799927,0.29241943,7.90625,11.359375,-28.234375
1695729194865,-0.48950195,-0.8772583,0.48260498,10.625,70.375,-24.203125
1695729194909,-0.59375,-0.54400635,0.42474365,12.46875,21.390625,-14.703125
1695729194939,-0.4008789,-0.5444946,0.44232178,1.421875,1.34375,-13.671875
1695729194984,-0.2763672,-0.9492798,0.4159546,-3.5625,-14.609375,-3.75
1695729195030,-0.33276367,-1.128479,0.48724365,-14.03125,-17.03125,-18.328125
1695729195059,-0.3630371,-0.8460083,0.46600342,-17.0625,-9.84375,-9.78125
1695729195105,-0.49243164,-0.7647095,0.44573975,-11.21875,-4.171875,1.890625
1695729195149,-0.5842285,-0.8015747,0.4225464,2.46875,0.53125,3.78125
1695729195180,-0.5307617,-0.8713989,0.44207764,14.40625,8.890625,9.53125
1695729195224,-0.38500977,-0.85235596,0.38031006,10.578125,2.203125,0.5625
1695729195255,-0.3515625,-0.8364868,0.39300537,13.84375,-7.796875,9.921875
1695729195300,-0.37695312,-0.8699341,0.3788452,13.515625,-11.0625,17.484375
1695729195345,-0.40551758,-0.9043579,0.3222046,14.75,-20.109375,19.484375
1695729195374,-0.42163086,-0.84820557,0.3060913,15.15625,-22.609375,25.6875
1695729195419,-0.35864258,-0.8648071,0.21063232,24.171875,-28.296875,34.765625
1695729195466,-0.21435547,-0.9866333,0.27581787,18.875,-6.640625,46.828125
1695729195495,-0.3330078,-0.96954346,0.11395264,6.046875,10.421875,36.390625
1695729195540,-0.17944336,-1.1289673,0.17474365,44.046875,5.34375,40.203125
1695729195588,-0.047851562,-1.2498169,0.022888184,37.09375,0.53125,41.765625
1695729195614,-0.001953125,-1.3391724,0.05340576,41.671875,4.21875,35.984375
1695729195659,-0.10668945,-1.4170532,-0.13677979,-9.890625,2.203125,39.484375
1695729195689,0.33520508,-1.2979126,-0.14923096,13.609375,7.1875,8.328125
1695729195735,0.43188477,-1.4841919,-0.12701416,4.125,-11.5625,2.765625
1695729195779,0.048095703,-1.5449829,-0.044006348,9.3125,-2.546875,5.09375
1695729195809,-0.08105469,-1.241272,-0.008361816,-28.328125,0.703125,-16.4375
1695729195854,0.060791016,-0.91729736,-0.05255127,-26.515625,0.75,-20.5
1695729195900,0.100097656,-0.72003174,0.020935059,-15.109375,-0.921875,-26.296875
1695729195930,-0.03491211,-0.80792236,0.054382324,-15.171875,2.328125,-42.796875
1695729195973,-0.03515625,-0.7781372,0.04168701,-24.359375,13.125,-43.640625
1695729196005,-0.057861328,-0.5979614,-0.0015258789,-35.390625,19.0625,-33.78125
1695729196050,-0.004638672,-0.4524536,-0.019348145,-25.421875,16.484375,-34.8125
1695729196096,-0.0031738281,-0.4570923,-0.029846191,-25.140625,8.0625,-28.59375
1695729196124,0.0053710938,-0.73223877,-0.06500244,-18.90625,4.65625,-16.09375
1695729196169,-0.0036621094,-1.1870728,0.10687256,1.71875,-11.890625,-8.1875
1695729196246,-0.12646484,-1.3064575,0.16595459,13.265625,-13.734375,0.515625
1695729196248,-0.24951172,-0.8862915,0.0099487305,-0.75,-0.578125,8.234375
1695729196291,-0.31054688,-0.6616821,-0.030334473,14.71875,11.6875,15.1875
1695729196364,-0.06665039,-0.6345825,0.0040893555,32.265625,19.921875,20.421875
1695729196367,0.020507812,-0.55352783,0.054626465,45.453125,15.359375,26.03125
1695729196409,0.00390625,-0.4463501,-0.077941895,36.421875,3.125,33.5625
1695729196440,0.22338867,-0.42974854,-0.14019775,30.40625,-9.203125,36.921875
1695729196485,0.1508789,-0.4841919,-0.0015258789,29.859375,-28.453125,32.609375
1695729196529,0.025390625,-1.0640259,-0.1026001,16.3125,-39.34375,31.09375
1695729196559,-0.15722656,-1.6558228,-0.19732666,17.5625,-13.921875,13.140625
1695729196606,0.2331543,-1.836731,-0.12579346,-18.46875,-25.875,-10.078125
1695729196634,-0.14697266,-1.3533325,0.1449585,16.3125,4.265625,-11.71875
1695729196679,0.10668945,-0.9680786,-0.4199829,-45.046875,5.984375,-14.09375
1695729196725,-0.12036133,-1.1294556,-0.25616455,-27.234375,11.5625,-30.5625
1695729196756,0.0073242188,-2.0,0.57440186,26.640625,-8.09375,-30.15625
1695729196800,0.0031738281,-1.097229,-0.11212158,-64.265625,14.640625,-60.9375
1695729196876,-0.15527344,-0.37408447,-0.062561035,-48.484375,19.203125,-19.421875
1695729196883,-0.33813477,-0.26983643,0.11395264,-20.390625,7.125,-13.0
1695729196919,-0.7023926,-1.3164673,0.1593628,-2.96875,-7.71875,-32.25
1695729196948,-0.4543457,-1.8613892,0.35150146,-11.421875,12.859375,-39.765625
1695729196993,-0.3190918,-0.67852783,0.2929077,-36.0625,40.15625,-37.53125
1695729197040,-0.31811523,-0.33917236,0.3319702,-24.0625,9.21875,-7.640625
1695729197069,-0.40234375,-0.67803955,0.38226318,16.484375,-9.640625,-0.71875
1695729197115,-0.52001953,-1.3672485,0.4923706,-8.296875,-7.25,-4.53125
1695729197161,-0.43359375,-0.9475708,0.38153076,-19.515625,6.453125,-12.203125
1695729197189,-0.40161133,-0.5640259,0.38079834,-14.703125,1.640625,-3.734375
1695729197234,-0.46728516,-0.76031494,0.39520264,14.34375,7.40625,5.4375
1695729197265,-0.41870117,-1.0408325,0.4418335,20.984375,12.15625,7.484375
1695729197309,-0.40966797,-0.8892212,0.29632568,14.921875,17.5,9.140625
1695729197356,-0.40966797,-0.7883911,0.32391357,22.390625,-0.84375,14.375
1695729197383,-0.33544922,-0.84991455,0.3480835,11.765625,-19.609375,16.1875
1695729197428,-0.39038086,-0.9717407,0.24969482,16.65625,-19.765625,24.71875
1695729197474,-0.3466797,-0.9651489,0.24505615,17.109375,-16.15625,21.5
1695729197503,-0.3491211,-0.9324341,0.12689209,16.5,-4.546875,23.375
1695729197549,-0.28881836,-0.8623657,0.14715576,33.171875,-4.0,29.234375
1695729197579,-0.22265625,-0.79522705,0.18743896,40.0,-12.671875,34.921875
1695729197624,-0.2614746,-0.91900635,0.045837402,27.09375,-15.984375,41.359375
1695729197668,-0.21386719,-1.3062134,-0.08135986,28.984375,6.546875,44.6875
1695729197698,0.0126953125,-1.6426392,-0.11578369,43.203125,12.84375,40.265625
1695729197746,0.24291992,-1.4214478,-0.13043213,67.90625,24.59375,18.578125
1695729197789,0.024169922,-1.2722778,-0.33135986,15.203125,-8.21875,26.3125
1695729197819,0.31054688,-1.1882935,-0.5408325,-25.578125,-13.671875,0.859375
1695729197865,0.2746582,-1.3875122,-0.15362549,-7.96875,-28.40625,-15.375
1695729197896,-0.01586914,-1.1887817,-0.112854004,-27.828125,-14.015625,2.125
1695729197939,-0.038085938,-1.0576782,-0.18096924,-46.28125,-0.203125,-14.90625
1695729197984,0.07788086,-0.9314575,-0.109191895,-15.40625,3.953125,-19.40625
1695729198013,-0.06323242,-0.7600708,-0.03692627,-34.453125,6.546875,-26.796875
1695729198059,0.04248047,-0.7786255,-0.078186035,-24.421875,16.25,-50.390625
1695729198105,0.10522461,-0.76104736,0.05999756,-12.34375,16.5,-40.703125
1695729198138,0.028564453,-0.65289307,0.002380371,-37.125,10.34375,-17.046875
1695729198178,-0.04345703,-0.5227661,-0.14996338,-26.828125,9.515625,-9.640625
1695729198209,-0.051513672,-0.6655884,-0.117492676,-8.328125,6.171875,-6.40625
1695729198254,-0.100097656,-0.87677,-0.023010254,0.3125,3.40625,1.046875
1695729198299,0.07104492,-0.9585571,0.030944824,12.25,12.234375,5.9375
1695729198329,0.115478516,-0.723938,-0.08135986,25.515625,12.4375,11.359375
1695729198376,0.045898438,-0.6453247,-0.1560669,26.203125,13.234375,18.34375
1695729198420,0.031982422,-0.5911255,-0.13848877,40.296875,12.0,26.6875
1695729198448,0.15454102,-0.4265747,-0.09307861,55.953125,-1.34375,29.21875
1695729198495,0.05053711,-0.4607544,-0.20147705,7.578125,-31.828125,25.671875
1695729198525,-0.075683594,-0.7346802,-0.038635254,47.78125,-5.171875,15.96875
1695729198570,0.2607422,-1.4937134,-0.144104,21.84375,-14.875,13.0625
1695729198614,0.10107422,-1.4509888,-0.20220947,-13.234375,-21.296875,24.296875
1695729198646,0.115234375,-1.3147583,-0.2954712,-15.453125,-8.109375,1.625
1695729198689,0.13720703,-1.248352,-0.2263794,-38.21875,-7.9375,-13.640625
1695729198735,0.08081055,-1.144104,-0.25445557,-14.796875,-9.359375,-26.5625
1695729198766,0.10620117,-1.4807739,0.051208496,-17.265625,2.8125,-39.078125
1695729198810,-0.05444336,-1.274231,0.18621826,-15.046875,13.0625,-36.375
1695729198839,-0.1459961,-1.1990356,-0.019592285,-40.4375,-4.765625,-27.6875
1695729198883,-0.05078125,-1.1526489,0.062194824,-32.453125,5.609375,-23.0625
1695729198928,-0.30737305,-0.7605591,0.16204834,-3.34375,10.359375,-30.609375
1695729198974,-0.38134766,-0.75982666,0.020446777,-15.5625,17.765625,-17.5
1695729199004,-0.14208984,-0.7571411,0.026550293,-20.796875,1.671875,-22.328125
1695729199048,-0.38891602,-1.4302368,0.32269287,0.0,-2.28125,-14.453125
1695729199079,-0.6748047,-1.5022583,0.15570068,-27.921875,20.359375,-46.828125
1695729199124,-0.45507812,-0.5808716,0.338562,-26.484375,28.890625,-34.390625
1695729199156,-0.37353516,-0.4854126,0.3300171,-13.390625,20.40625,-9.515625
1695729199200,-0.29125977,-0.75006104,0.3595581,-4.59375,-2.328125,-4.859375
1695729199247,-0.44726562,-1.2678833,0.4220581,-3.890625,-1.109375,-8.015625
1695729199274,-0.47509766,-0.9612427,0.4389038,-16.0,6.484375,-15.34375
1695729199320,-0.43041992,-0.6050415,0.34588623,-19.140625,5.515625,-5.453125
1695729199367,-0.49194336,-0.7576294,0.3619995,11.578125,8.171875,6.640625
1695729199395,-0.46557617,-1.0037231,0.42352295,13.015625,2.125,4.125
1695729199439,-0.39941406,-0.8936157,0.33587646,8.25,0.6875,7.375
1695729199468,-0.3642578,-0.76348877,0.32489014,13.25,-4.296875,14.484375
1695729199518,-0.42358398,-0.87823486,0.28948975,17.78125,-8.90625,16.703125
1695729199559,-0.42285156,-1.0108032,0.29486084,19.0625,-8.4375,20.5625
1695729199589,-0.31689453,-0.909729,0.26727295,20.25,-5.515625,21.453125
1695729199636,-0.36083984,-0.82037354,0.23651123,24.625,-12.484375,25.421875
1695729199680,-0.3696289,-0.8362427,0.18426514,31.15625,-18.609375,32.296875
1695729199709,-0.29760742,-0.9429321,0.13543701,31.265625,-19.546875,41.4375
1695729199753,-0.17895508,-1.0042114,0.061462402,6.859375,-9.734375,47.984375
1695729199799,-0.07861328,-1.1541138,0.03387451,30.15625,4.453125,47.828125
1695729199828,-0.10229492,-1.5095825,-0.034973145,28.375,14.078125,27.625
1695729199874,0.07446289,-1.4876099,0.023132324,1.453125,3.859375,12.53125
1695729199905,0.042236328,-1.1187134,-0.11065674,-25.125,-5.3125,8.203125
1695729199949,0.28149414,-1.4319458,-0.34088135,10.3125,4.328125,7.421875
1695729199995,0.3161621,-1.6782837,-0.13555908,0.609375,-17.046875,-2.40625
1695729200025,-0.18847656,-1.4890747,0.051940918,10.90625,-0.4375,8.140625
1695729200070,-0.17529297,-0.8833618,-0.046447754,-16.421875,1.890625,-9.734375
1695729200122,0.09326172,-0.7007446,-0.097961426,-7.953125,1.765625,-12.625
1695729200144,0.17016602,-0.7420044,0.007507324,-14.375,-14.875,-22.796875
1695729200189,0.0073242188,-0.77789307,0.0053100586,-24.28125,8.109375,-34.0
1695729200219,0.02368164,-0.7090454,0.032165527,-16.84375,12.40625,-33.78125
1695729200264,-0.0107421875,-0.60528564,-0.03643799,-39.421875,13.34375,-33.09375
1695729200309,0.017578125,-0.54888916,-0.08795166,-30.53125,10.0625,-29.8125
1695729200338,0.006591797,-0.786438,-0.050842285,-8.859375,-0.015625,-22.765625
1695729200384,-0.1003418,-0.98883057,-0.02911377,-9.015625,-1.71875,-6.015625
1695729200430,-0.03930664,-0.90167236,0.03753662,-0.421875,-2.15625,2.46875
1695729200458,0.0034179688,-0.78692627,0.0079956055,5.9375,-7.28125,5.5
1695729200505,-0.11791992,-0.8987427,-0.011047363,17.59375,-2.0625,15.75
1695729200535,-0.103271484,-1.0059204,-0.0037231445,23.921875,2.203125,22.265625
1695729200582,0.016601562,-0.850647,0.0060424805,17.6875,2.28125,19.375
1695729200625,-0.010498047,-0.64849854,-0.06744385,26.265625,8.875,25.921875
1695729200653,0.041015625,-0.6235962,-0.17828369,30.8125,-14.28125,31.078125
1695729200699,0.15258789,-0.75250244,-0.014709473,27.53125,-7.890625,36.984375
1695729200744,0.0087890625,-0.5901489,0.09564209,30.75,-11.625,37.96875
1695729200773,-0.17602539,-0.69659424,-0.054016113,7.28125,-1.578125,21.921875
1695729200818,-0.048828125,-0.9685669,-0.26446533,-1.109375,5.96875,14.015625
1695729200849,0.2697754,-1.4949341,-0.06793213,19.5,-1.71875,11.3125
1695729200892,0.25952148,-1.2835083,0.051940918,-20.8125,5.0,-6.140625
1695729200938,-0.008056641,-1.2732544,-0.3255005,-27.125,13.34375,-13.109375
1695729200969,0.16040039,-1.3692017,-0.08502197,-21.78125,6.171875,-28.671875
1695729201017,0.1015625,-1.3955688,-0.022766113,-8.125,-3.984375,-35.78125
1695729201061,0.25976562,-1.6792603,0.11541748,-48.296875,-8.3125,-37.453125
1695729201090,-0.18286133,-1.4758911,0.2538452,-3.0,7.34375,-31.359375
1695729201135,-0.38110352,-0.73272705,-0.055480957,-46.203125,30.34375,-61.171875
1695729201163,-0.10839844,-0.4085083,0.034851074,-28.6875,2.96875,-20.515625
1695729201210,-0.045654297,-0.43243408,0.070007324,-16.828125,2.25,-10.75
1695729201254,-0.33642578,-1.284729,0.25531006,17.328125,-19.953125,-14.46875
1695729201285,-0.6594238,-2.0,0.14520264,-28.09375,22.28125,-31.96875
1695729201330,-0.6130371,-0.79522705,0.34979248,-7.640625,31.25,-34.890625
1695729201375,-0.38012695,-0.33380127,0.29144287,-45.078125,22.46875,-14.703125
1695729201404,-0.14746094,-0.47198486,0.47821045,12.203125,5.828125,-14.453125
1695729201449,-0.4416504,-1.3164673,0.4586792,-5.359375,2.84375,-7.953125
1695729201479,-0.5192871,-1.1448364,0.3768921,-24.015625,12.46875,-12.53125
1695729201526,-0.44677734,-0.66778564,0.46844482,-20.609375,9.8125,-15.234375
1695729201570,-0.43530273,-0.6382446,0.4100952,-12.390625,14.703125,-0.265625
1695729201600,-0.41259766,-0.892395,0.49700928,12.75,-0.640625,7.0
1695729201645,-0.48461914,-0.94732666,0.42767334,8.1875,1.984375,5.75
1695729201689,-0.45361328,-0.8513794,0.39105225,12.28125,1.125,0.5625
1695729201720,-0.3684082,-0.7437134,0.38275146,8.890625,-4.28125,9.046875
1695729201766,-0.39746094,-0.8748169,0.37127686,21.578125,-12.328125,17.875
1695729201798,-0.42407227,-1.0025024,0.3414917,18.84375,-16.609375,18.0625
1695729201840,-0.39501953,-0.9234009,0.324646,19.359375,-18.34375,16.625
1695729201885,-0.3310547,-0.8599243,0.29632568,10.828125,-14.71875,21.046875
1695729201914,-0.3798828,-0.89385986,0.24871826,13.3125,-16.90625,31.3125
1695729201962,-0.38549805,-0.88360596,0.18157959,38.8125,-15.984375,39.875
1695729202008,-0.21166992,-0.91363525,0.11199951,26.625,-13.078125,45.34375
1695729202034,-0.18603516,-0.9133911,-0.015197754,15.046875,-10.859375,48.921875
1695729202080,-0.14135742,-1.3460083,-0.27716064,23.515625,-1.71875,44.328125
1695729202111,-0.01953125,-1.6028442,0.13934326,60.921875,34.515625,23.5625
1695729202155,-0.14477539,-1.4627075,0.07489014,85.140625,-9.5,26.46875
1695729202200,0.3449707,-1.4448853,-0.3977661,-2.15625,14.59375,5.0
1695729202229,0.7507324,-1.2529907,-0.30303955,2.234375,-3.84375,11.859375
1695729202274,0.059326172,-1.2637329,-0.25201416,-3.625,3.46875,4.546875
1695729202320,-0.2854004,-1.1309204,-0.21881104,-36.015625,4.734375,-24.875
1695729202350,-0.022216797,-0.83062744,-0.24664307,-16.34375,1.375,-8.875
1695729202394,0.17773438,-0.76226807,-0.12994385,-19.578125,7.234375,-19.8125
1695729202425,0.09008789,-0.7258911,-0.031311035,-26.84375,13.796875,-35.59375
1695729202469,-0.06542969,-0.6399536,-0.07623291,-28.8125,11.8125,-33.609375
1695729202517,-0.08203125,-0.5835571,-0.12652588,-39.375,12.1875,-29.953125
1695729202544,0.068359375,-0.6499634,-0.09576416,-39.453125,14.8125,-26.1875
1695729202588,0.08544922,-0.9194946,0.058044434,-38.421875,-1.9375,-14.4375
1695729202635,-0.004638672,-1.0073853,0.11566162,-30.359375,-16.859375,-10.546875
1695729202664,-0.16552734,-0.90509033,0.010192871,-11.640625,-18.484375,-8.296875
1695729202709,-0.16357422,-0.74298096,-0.053771973,-5.703125,-3.984375,5.984375
1695729202740,-0.14526367,-0.7937622,0.061950684,14.28125,-8.5625,17.78125
1695729202785,-0.041015625,-0.9866333,0.09051514,16.890625,-3.828125,15.15625
1695729202831,-0.009765625,-0.8648071,0.035583496,22.6875,3.125,15.03125
1695729202859,0.010986328,-0.71661377,-0.13116455,28.546875,-4.109375,26.125
1695729202905,0.08203125,-0.6326294,-0.08135986,43.859375,4.28125,35.84375
1695729202950,0.0061035156,-0.59161377,-0.0154418945,36.578125,-2.109375,38.921875
1695729202979,-7.324219E-4,-0.7034302,-0.062805176,29.0,-10.671875,31.265625
1695729203025,-0.050048828,-0.710022,-0.15704346,28.6875,-3.15625,28.859375
1695729203055,0.17163086,-0.9885864,-0.109191895,30.5,-1.375,28.28125
1695729203100,-0.0012207031,-1.0596313,-0.061584473,4.765625,-0.21875,28.84375
1695729203144,0.1586914,-1.4431763,-0.29107666,2.125,10.5625,-2.8125
1695729203174,0.3383789,-1.5327759,-0.25787354,-55.875,0.984375,-24.015625
1695729203219,0.20532227,-1.3567505,0.097351074,-13.71875,13.171875,-40.171875
1695729203265,0.2175293,-1.2810669,-0.22589111,-42.78125,-5.375,-69.578125
1695729203294,0.084228516,-1.2122192,-0.023986816,-7.109375,14.671875,-25.65625
1695729203340,0.15429688,-0.94195557,-0.09649658,-35.71875,-8.546875,-36.65625
1695729203369,-0.02734375,-1.3394165,0.16888428,-23.734375,-10.953125,-28.546875
1695729203416,-0.65966797,-1.0291138,0.18865967,-46.75,38.65625,-41.890625
1695729203462,-0.65893555,-0.83135986,0.027038574,2.171875,15.015625,-36.75
1695729203489,-0.17822266,-0.82818604,4.272461E-4,-65.140625,3.28125,-6.046875
1695729203535,-0.21533203,-1.4307251,0.6901245,58.9375,-0.6875,0.4375
1695729203580,-0.6916504,-1.2600708,0.39593506,-19.53125,33.453125,-36.25
1695729203609,-0.6772461,-0.2954712,0.0119018555,-51.171875,20.234375,-23.5625
1695729203655,-0.12060547,-0.5298462,0.524353,-2.046875,4.46875,-14.703125
1695729203699,-0.25610352,-1.0176392,0.586853,-16.015625,1.75,-3.9375
1695729203730,-0.6542969,-1.2456665,0.28704834,-18.0,15.328125,-6.328125
1695729203774,-0.3791504,-0.7671509,0.5023804,-8.6875,17.703125,-6.171875
1695729203805,-0.35961914,-0.6487427,0.4244995,-13.03125,15.4375,-0.078125
1695729203849,-0.4873047,-0.866272,0.4249878,6.046875,3.21875,5.828125
1695729203896,-0.41601562,-0.92633057,0.3834839,4.65625,5.34375,1.3125
1695729203934,-0.42529297,-0.89312744,0.4706421,14.03125,7.921875,1.046875
1695729203968,-0.37426758,-0.74957275,0.38201904,5.96875,-1.078125,6.15625
1695729204015,-0.31445312,-0.83477783,0.47479248,23.140625,-2.578125,13.59375
1695729204045,-0.40234375,-0.98028564,0.43450928,17.25,-0.015625,15.078125
1695729204090,-0.39892578,-0.91070557,0.32073975,14.609375,0.9375,7.484375
1695729204121,-0.33984375,-0.8340454,0.32269287,19.890625,4.484375,14.0
1695729204165,-0.34887695,-0.84576416,0.27825928,28.15625,2.734375,14.265625
1695729204211,-0.25561523,-0.97369385,0.1486206,32.28125,-4.9375,15.9375
1695729204239,-0.15600586,-0.9824829,0.22039795,39.90625,-5.65625,26.59375
1695729204284,-0.1862793,-0.9673462,0.16546631,53.984375,-17.40625,33.125
1695729204332,-0.37426758,-0.9717407,-0.37677002,-7.765625,-45.0,28.109375
1695729204359,-0.25268555,-0.7698364,0.262146,65.5625,16.609375,32.125
1695729204405,9.765625E-4,-1.4197388,-0.008361816,79.8125,-13.78125,58.703125
1695729204436,-0.029541016,-1.8552856,-0.11090088,-12.390625,-25.53125,12.5
1695729204480,0.19726562,-1.4727173,-0.15899658,50.71875,25.9375,15.375
1695729204530,-0.0073242188,-1.05719,-0.6043091,-41.625,-28.328125,18.375
1695729204553,0.42700195,-1.4800415,-0.26055908,7.578125,-27.15625,-4.34375
1695729204600,0.19433594,-1.569397,0.0079956055,-19.140625,-9.328125,8.53125
1695729204645,-0.08276367,-1.0440063,-0.20269775,-30.78125,1.84375,-29.484375
1695729204676,-0.083984375,-0.69244385,-0.26837158,-24.359375,-2.4375,-30.03125
1695729204721,0.052001953,-0.55841064,-0.19122314,-26.71875,-1.6875,-31.40625
1695729204750,0.036865234,-0.6638794,-0.08770752,-24.84375,2.265625,-30.65625
1695729204795,-0.07446289,-0.7149048,-0.047424316,-27.109375,3.75,-28.890625
1695729204840,-0.095703125,-0.6091919,-0.018371582,-20.203125,10.796875,-26.78125
1695729204869,0.04345703,-0.5569458,-0.06329346,-26.015625,0.75,-23.09375
1695729204914,-0.011230469,-0.68707275,-0.10015869,-16.78125,0.46875,-11.828125
1695729204990,-0.15454102,-0.987854,-0.08258057,-2.609375,-3.578125,-1.84375
1695729204993,-0.24804688,-1.1084595,-0.12579346,0.28125,1.9375,-1.109375
1695729205033,-0.09057617,-0.94537354,0.020202637,11.25,13.953125,-0.765625
1695729205063,0.0146484375,-0.7334595,0.009216309,4.53125,7.828125,10.25
1695729205108,-0.17700195,-0.7710571,-0.12237549,21.21875,10.65625,24.21875
1695729205155,-0.10473633,-0.8423462,-0.12945557,30.03125,17.265625,28.234375
1695729205184,0.080566406,-0.7197876,-0.15240479,40.546875,-1.390625,35.625
1695729205230,0.31274414,-0.6956177,-0.12335205,57.515625,-17.765625,41.359375
1695729205275,0.41333008,-0.663147,-0.046691895,28.125,-35.40625,46.0625
1695729205306,0.009765625,-0.51519775,-0.08306885,21.875,-35.984375,49.390625
1695729205351,-0.38305664,-0.6860962,-0.31304932,9.859375,-19.578125,33.921875
1695729205379,-0.07714844,-0.9644165,-0.33746338,3.03125,-11.984375,1.09375
1695729205427,0.4921875,-1.4563599,-0.08306885,39.53125,-1.375,15.515625
1695729205469,0.6123047,-1.6091919,-0.17071533,-33.96875,10.625,6.84375
1695729205499,0.01928711,-1.0872192,-0.32037354,-23.21875,5.40625,-13.828125
1695729205545,0.2331543,-1.2371216,-0.31793213,-43.390625,3.328125,-28.3125
1695729205590,0.41992188,-1.435852,-0.020812988,4.296875,-24.984375,-35.4375
1695729205619,0.25634766,-1.3494263,-0.25030518,-44.78125,11.296875,-47.734375
1695729205664,0.14282227,-1.4129028,0.028259277,-18.90625,-4.359375,-22.6875
1695729205695,-0.015136719,-1.0151978,0.1239624,15.375,19.046875,-11.65625
1695729205739,-0.22167969,-0.7383423,0.053894043,8.671875,35.703125,-8.765625
1695729205785,0.050048828,-0.4920044,-0.1831665,-76.921875,7.640625,-27.8125
1695729205817,0.08642578,-0.90460205,0.29803467,-25.71875,-1.34375,-53.765625
1695729205859,-0.17700195,-1.7520142,0.3554077,-32.21875,1.28125,-29.65625
1695729205904,-0.42358398,-1.6397095,0.008972168,-19.96875,68.21875,-11.875
1695729205934,-0.5378418,-0.46588135,0.13983154,-34.171875,32.0625,-37.484375
1695729205980,-0.59887695,-0.33477783,0.22235107,-17.015625,16.09375,-23.015625
1695729206010,-0.022460938,-0.5894165,0.354187,-27.0,-8.3125,-18.0625
1695729206056,-0.084472656,-1.3657837,0.5050659,-7.765625,-18.65625,-4.6875
1695729206099,-0.47558594,-1.1328735,0.34613037,-25.53125,-26.296875,-15.515625
1695729206131,-0.4951172,-0.6362915,0.3204956,-20.171875,-12.5625,-20.796875
1695729206176,-0.41186523,-0.722229,0.480896,-6.5,-0.4375,-6.53125
1695729206219,-0.44482422,-0.99713135,0.49554443,6.28125,0.359375,8.96875
1695729206249,-0.4975586,-0.9036255,0.39593506,1.890625,6.046875,4.125
1695729206296,-0.44311523,-0.7630005,0.4796753,11.34375,-0.1875,-4.890625
1695729206325,-0.37353516,-0.78497314,0.40570068,4.21875,-0.234375,8.828125
1695729206368,-0.29736328,-0.9121704,0.48236084,19.046875,-9.140625,16.234375
1695729206416,-0.4038086,-0.95440674,0.3529663,10.890625,-7.390625,18.78125
1695729206445,-0.42919922,-0.850647,0.3439331,26.296875,1.046875,13.78125
1695729206491,-0.42407227,-0.864563,0.20452881,32.21875,5.953125,20.5
1695729206535,-0.32470703,-0.96173096,0.30194092,47.171875,6.71875,28.578125
1695729206565,-0.25048828,-0.835022,0.22259521,44.734375,-1.703125,32.625
1695729206610,-0.20117188,-0.91534424,0.07293701,51.171875,-10.5625,34.234375
1695729206639,-0.14038086,-0.9277954,0.031677246,39.578125,-16.640625,43.34375
1695729206684,-0.13598633,-1.1670532,-0.25006104,30.28125,8.703125,55.296875
1695729206731,0.0690918,-1.7473755,-0.1987915,67.171875,7.671875,29.984375
1695729206761,0.19555664,-1.3587036,-0.23931885,46.453125,7.0625,31.609375
1695729206806,0.49316406,-1.298645,-0.5774536,-10.46875,2.765625,11.234375
1695729206849,0.28564453,-1.50177,-0.5276489,11.953125,-11.3125,17.890625
1695729206881,-0.27661133,-1.1453247,-0.411438,-13.28125,1.6875,12.015625
1695729206940,0.06958008,-0.8809204,-0.3880005,-32.28125,-4.859375,-17.796875
1695729206955,0.4104004,-0.8604126,-0.012756348,-23.125,-6.390625,-8.109375
1695729207000,0.14575195,-0.8152466,-0.09259033,-41.65625,1.171875,-19.1875
1695729207046,-0.021728516,-0.89190674,-0.22174072,-8.3125,18.125,-45.4375
1695729207076,-0.0021972656,-0.85284424,-0.045715332,-47.96875,18.984375,-39.265625
1695729207119,0.17089844,-0.5960083,-0.10626221,-42.65625,16.21875,-40.859375
1695729207166,0.044189453,-0.45611572,-0.1651001,-38.25,2.734375,-36.703125
1695729207195,-0.17895508,-0.5359497,-0.1585083,-24.078125,1.3125,-25.734375
1695729207240,-0.091796875,-0.7678833,0.034851074,-12.765625,-0.453125,-17.578125
1695729207270,0.040527344,-1.0032349,-0.026184082,-11.5,-2.46875,-7.671875
1695729207316,-0.029052734,-1.0166626,-0.06427002,-0.34375,-5.84375,8.4375
1695729207360,-0.2241211,-0.8953247,-0.03326416,5.59375,3.46875,15.4375
1695729207390,-0.21801758,-0.75665283,0.001159668,19.765625,-2.828125,9.875
1695729207435,-0.10205078,-0.7595825,-0.014221191,30.5625,13.484375,26.34375
1695729207480,0.024658203,-0.66900635,-0.14971924,22.09375,14.703125,26.5
1695729207510,0.11450195,-0.60113525,-0.16656494,44.640625,-1.765625,31.984375
1695729207556,0.16699219,-0.60406494,-0.17388916,36.25,-23.234375,51.28125
1695729207584,0.23266602,-0.71466064,-0.097717285,33.59375,-18.6875,45.453125
1695729207630,0.17333984,-0.85162354,0.07537842,20.046875,-10.421875,27.8125
1695729207675,-0.23730469,-0.96173096,-0.29693604,-2.5,-20.6875,14.78125
1695729207708,0.08959961,-1.180481,-0.32086182,2.46875,-12.21875,-10.03125
1695729207749,0.55615234,-1.7791138,-0.05255127,16.953125,-0.890625,-3.4375
1695729207795,0.32836914,-1.4483032,-0.08477783,-52.0,-16.65625,-13.625
1695729207825,-0.13623047,-1.0620728,-0.5420532,-45.515625,-5.25,-37.109375
1695729207869,0.052001953,-1.1106567,-0.10406494,42.25,8.28125,-28.765625
1695729207915,0.3161621,-1.4280396,0.4257202,23.0,-4.140625,13.890625
1695729207944,0.16772461,-1.2659302,-0.10748291,-139.3125,13.796875,-16.921875
1695729207990,-0.17333984,-1.0896606,-0.18658447,-11.96875,-7.328125,-31.078125
1695729208019,-0.29492188,-1.015686,0.25775146,4.84375,19.1875,-30.625
1695729208065,-0.29736328,-0.7632446,-0.109191895,-68.46875,15.875,-40.609375
1695729208111,-0.10253906,-1.0471802,0.13006592,-8.921875,11.25,-40.140625
1695729208139,-0.15551758,-1.5154419,0.24481201,-4.140625,18.8125,-38.609375
1695729208185,-0.4152832,-1.145813,0.25091553,19.4375,58.4375,-35.46875
1695729208230,-0.37451172,-0.61309814,0.40496826,-16.265625,20.640625,-11.5625
1695729208259,-0.1538086,-0.50909424,0.3156128,-27.59375,3.5,-11.21875
1695729208305,-0.27514648,-0.9500122,0.38861084,0.578125,-3.09375,-5.609375
1695729208336,-0.43823242,-1.208313,0.3847046,-22.578125,-2.859375,-6.5625
1695729208395,-0.2980957,-0.767395,0.37298584,-31.0,-4.984375,-16.8125
1695729208439,-0.2697754,-0.78302,0.4484253,-13.78125,-2.375,-2.953125
1695729208455,-0.48583984,-0.92926025,0.449646,0.765625,-7.765625,1.6875
1695729208500,-0.529541,-0.897522,0.42523193,4.546875,3.375,0.90625
1695729208544,-0.36279297,-0.84503174,0.40203857,6.765625,1.640625,1.640625
1695729208574,-0.28027344,-0.81451416,0.4052124,8.375,-1.546875,12.96875
1695729208618,-0.38891602,-0.9138794,0.33880615,3.796875,-7.640625,13.328125
1695729208648,-0.38623047,-0.913147,0.33685303,11.421875,-3.609375,9.65625
1695729208696,-0.32958984,-0.90509033,0.34954834,11.921875,-6.703125,12.5625
1695729208741,-0.34228516,-0.8899536,0.25994873,19.0625,-7.78125,14.484375
1695729208771,-0.21191406,-0.89849854,0.34368896,32.71875,-5.5,21.5
1695729208813,-0.2133789,-0.9871216,0.12689209,39.578125,-5.953125,28.484375
1695729208859,-0.20043945,-0.8364868,0.15985107,49.3125,-13.390625,33.875
1695729208888,-0.14282227,-0.90093994,0.047302246,45.875,-13.25,40.859375
1695729208934,-0.13671875,-1.0977173,-0.13604736,23.53125,-9.203125,40.75
1695729208963,-0.020751953,-1.5654907,-0.040100098,79.40625,13.328125,38.265625
1695729209009,0.0024414062,-1.7009888,-0.2612915,40.84375,17.6875,14.609375
1695729209056,0.029296875,-1.0906372,-0.42681885,17.265625,-1.59375,7.203125
1695729209084,0.18432617,-1.201477,-0.58917236,4.421875,6.90625,19.8125
1695729209129,0.23388672,-1.385315,-0.33306885,11.078125,-6.109375,11.90625
1695729209174,-0.007080078,-1.2637329,-0.26934814,-23.609375,-10.5625,1.203125
1695729209204,0.06958008,-0.9248657,-0.22613525,-24.796875,-12.484375,-3.875
1695729209249,0.20483398,-0.7835083,-0.17926025,-46.59375,-10.3125,-3.703125
1695729209280,0.10424805,-0.7949829,-0.070617676,-40.21875,-9.828125,-17.78125
1695729209330,2.4414062E-4,-0.90753174,-0.08111572,-42.28125,2.78125,-35.375
1695729209369,-0.005126953,-0.83306885,-0.04815674,-43.21875,9.984375,-44.90625
1695729209399,0.064941406,-0.59820557,-0.027160645,-36.265625,1.0625,-43.78125
1695729209444,0.026123047,-0.5733032,-0.07940674,-36.53125,6.890625,-38.03125
1695729209491,-0.13256836,-0.6980591,-0.09625244,-26.046875,7.390625,-19.625
1695729209519,-0.12646484,-0.9470825,0.019714355,-14.5,12.578125,-11.21875
1695729209565,-0.0690918,-0.98809814,0.057800293,-9.59375,2.09375,-12.84375
1695729209595,-0.047851562,-0.87579346,0.050964355,-5.765625,0.375,-7.015625
1695729209643,-0.013427734,-0.93634033,0.0446167,-1.046875,-6.140625,1.90625
1695729209685,-0.15356445,-0.93536377,0.07659912,3.765625,-8.4375,10.796875
1695729209715,-0.18725586,-0.9319458,0.017028809,6.46875,-8.703125,11.234375
1695729209759,-0.115722656,-0.80255127,0.043884277,19.609375,-0.0625,17.6875
1695729209805,-0.043701172,-0.7842407,0.04168701,27.078125,7.421875,28.546875
1695729209836,0.059570312,-0.71832275,-0.055480957,39.75,1.046875,32.890625
1695729209880,0.095214844,-0.503479,-0.05279541,60.171875,2.265625,36.0625
