,timestamp,accel_x,accel_y,accel_z,gyro_x,gyro_y,gyro_z
0,1695727956166,-0.03491211,-0.66534424,-0.33966064,-12.09375,-1.640625,-2.5625
1,1695727956205,-0.22607422,-0.5977173,-0.40948486,-25.6875,-3.4375,1.40625
2,1695727956246,0.03857422,-0.6218872,-0.3279419,5.546875,-14.34375,5.59375
3,1695727956285,0.20629883,-0.91900635,-0.54815674,-2.40625,-12.15625,14.421875
4,1695727956327,0.50512695,-1.5183716,-0.062316895,18.109375,-26.703125,-4.28125
5,1695727956364,0.009033203,-1.3086548,-0.13336182,-24.90625,1.375,-0.5
6,1695727956384,-0.17944336,-0.9702759,-0.45855713,-38.78125,12.984375,-15.984375
7,1695727956425,0.35961914,-0.7695923,-0.10235596,2.21875,-1.796875,-22.1875
8,1695727956464,0.14477539,-0.7090454,0.02532959,-3.96875,12.65625,5.8125
9,1695727956506,-0.038085938,-0.5623169,-0.18389893,-24.75,-8.3125,-12.1875
10,1695727956546,0.09423828,-0.81085205,-0.0064086914,22.90625,2.734375,-17.390625
11,1695727956585,0.19238281,-0.83380127,-0.14630127,-15.078125,8.796875,-10.828125
12,1695727956645,-0.13989258,-0.9717407,-0.63946533,2.4375,-14.390625,-10.546875
13,1695727956665,0.07739258,-1.5576782,-0.33843994,73.5625,-4.515625,-7.859375
14,1695727956707,-0.37548828,-1.4190063,-0.37017822,-18.53125,-2.0,2.359375
15,1695727956745,-0.20361328,-0.88238525,-0.46051025,0.625,9.1875,-8.015625
16,1695727956805,0.20898438,-1.12677,-0.46343994,10.390625,-5.453125,15.96875
17,1695727956825,-0.20214844,-0.8599243,-0.30181885,0.96875,3.578125,7.3125
18,1695727956866,-0.36132812,-0.7703247,-0.26275635,4.5,12.28125,-5.140625
19,1695727956906,-0.099609375,-0.5491333,-0.4192505,-30.453125,7.3125,8.046875
20,1695727956945,0.13549805,-0.3875122,-0.36724854,26.5,-7.09375,13.15625
21,1695727956987,0.12597656,-0.8521118,-0.49224854,74.125,-11.796875,13.609375
22,1695727957027,-0.01977539,-1.15094,-0.42315674,-4.0,1.203125,12.40625
23,1695727957067,0.16040039,-0.78082275,-0.4048462,-7.03125,-1.734375,32.15625
24,1695727957107,0.29760742,-1.1975708,-0.15924072,3.671875,1.71875,12.234375
25,1695727957146,-0.23706055,-1.2908325,-0.5635376,-17.734375,10.234375,-25.640625
26,1695727957187,0.20458984,-1.0586548,-0.3447876,4.234375,6.03125,-13.921875
27,1695727957230,0.35351562,-0.7971802,-0.18365479,7.265625,-3.5625,9.03125
28,1695727957267,0.0087890625,-0.6646118,-0.20074463,-0.046875,2.390625,-5.53125
29,1695727957307,-0.1616211,-0.6773071,-0.09991455,16.21875,6.1875,-19.59375
30,1695727957347,-0.32470703,-0.7229614,-0.32525635,-11.453125,35.40625,0.4375
31,1695727957387,-0.07739258,-0.47296143,-0.86187744,1.453125,25.15625,-10.671875
32,1695727957446,0.49804688,-0.99224854,-0.44073486,57.65625,7.5,-16.765625
33,1695727957466,0.2746582,-1.4483032,-0.5198364,15.28125,-6.125,-2.8125
34,1695727957507,-0.36254883,-1.2129517,-0.6152954,-19.75,1.21875,-3.609375
35,1695727957547,-0.19067383,-0.79034424,-0.75494385,-20.171875,-8.265625,-1.53125
36,1695727957586,-0.17626953,-0.67926025,-0.56378174,1.4375,-1.421875,14.421875
37,1695727957627,-0.21923828,-0.85479736,-0.4348755,13.015625,0.03125,15.421875
38,1695727957666,-0.02758789,-0.9260864,-0.3567505,-13.75,3.328125,1.953125
39,1695727957686,0.006591797,-0.7136841,-0.4336548,-33.796875,-5.171875,8.890625
40,1695727957725,-0.087402344,-0.6062622,-0.51348877,-18.359375,-16.328125,21.421875
41,1695727957765,-0.2163086,-0.6453247,-0.5852661,11.140625,-18.953125,5.984375
42,1695727957806,0.31884766,-1.1782837,-0.46148682,-8.296875,6.640625,13.328125
43,1695727957845,0.62280273,-1.0823364,-0.15679932,18.53125,-8.421875,8.828125
44,1695727957886,-0.19335938,-0.8948364,-0.33502197,-19.09375,-1.203125,-6.59375
45,1695727957925,-0.16625977,-0.75494385,-0.47540283,5.15625,18.921875,-8.1875
46,1695727957966,0.47387695,-0.94000244,-0.33648682,25.953125,5.25,-9.296875
47,1695727958006,0.38989258,-0.94000244,-0.25958252,-4.890625,-3.109375,6.46875
48,1695727958046,0.026123047,-0.7012329,-0.31915283,-2.59375,-5.625,0.1875
49,1695727958086,-0.03466797,-0.72540283,-0.22589111,12.8125,-5.453125,-11.9375
50,1695727958126,-0.033447266,-0.6338501,-0.17315674,-27.421875,6.96875,-7.609375
51,1695727958165,0.08227539,-0.6289673,-0.45343018,-1.953125,32.78125,-10.625
52,1695727958210,0.110839844,-0.923645,-0.7608032,-8.28125,-0.40625,-6.3125
53,1695727958245,0.2770996,-1.5310669,-0.6148071,25.640625,9.0625,-8.09375
54,1695727958305,-0.4855957,-1.291565,-0.62091064,14.671875,-10.625,4.390625
55,1695727958325,-0.28515625,-0.79815674,-0.57354736,-17.140625,31.890625,10.171875
56,1695727958366,0.015136719,-0.80596924,-0.5786743,-11.671875,20.859375,3.421875
57,1695727958406,-0.040283203,-0.85601807,-0.45587158,-10.265625,10.96875,7.359375
58,1695727958447,0.0107421875,-0.7642212,-0.33795166,4.046875,7.734375,5.6875
59,1695727958486,-0.010009766,-0.6914673,-0.40045166,-17.5,-9.125,5.078125
60,1695727958527,-0.10620117,-0.6716919,-0.41583252,-2.359375,-4.390625,17.0
61,1695727958566,-0.02709961,-0.6838989,-0.27838135,3.015625,-2.90625,15.375
62,1695727958606,-0.10449219,-0.78741455,-0.5046997,-14.4375,-24.484375,9.203125
63,1695727958667,0.080078125,-0.91119385,-0.59161377,-21.984375,5.84375,5.140625
64,1695727958686,0.7324219,-1.538147,-0.039611816,9.25,-18.5,4.15625
65,1695727958727,-0.13989258,-1.2390747,-0.23199463,-10.375,9.421875,0.734375
66,1695727958766,-0.3659668,-0.8213501,-0.56744385,-32.53125,32.984375,-5.8125
67,1695727958806,0.31054688,-0.677063,-0.29156494,10.5,2.59375,-17.40625
68,1695727958847,0.51660156,-0.86505127,-0.10845947,10.421875,8.6875,4.25
69,1695727958885,0.19726562,-0.8362427,-0.20904541,-7.453125,2.21875,4.546875
70,1695727958926,0.1328125,-0.7659302,-0.16485596,1.75,-16.140625,-11.015625
71,1695727958966,-0.01928711,-0.69732666,-0.12530518,-4.8125,-9.34375,-17.5
72,1695727958986,-0.076416016,-0.815979,-0.3508911,-8.25,6.6875,-18.78125
73,1695727959028,-0.00390625,-0.9612427,-0.51690674,4.46875,0.046875,-19.640625
74,1695727959067,0.035888672,-1.260315,-0.47027588,31.21875,-12.953125,-7.0625
75,1695727959107,-0.19848633,-1.2610474,-0.47540283,-15.6875,-20.625,-9.78125
76,1695727959149,-0.26708984,-1.0947876,-0.3862915,2.671875,-7.703125,-6.15625
77,1695727959186,-0.31518555,-1.083313,-0.43585205,-0.359375,8.9375,5.484375
78,1695727959246,-0.119140625,-0.9458618,-0.4187622,-13.90625,12.84375,-7.859375
79,1695727959266,-0.08520508,-0.7625122,-0.28961182,0.359375,3.671875,-0.453125
80,1695727959307,-0.11425781,-0.68536377,-0.3633423,-16.0625,2.390625,9.34375
81,1695727959349,-0.008544922,-0.7659302,-0.32110596,-12.640625,-6.640625,15.140625
82,1695727959387,-0.06274414,-0.8413696,-0.1194458,6.25,-8.28125,16.34375
83,1695727959430,-0.25585938,-0.77471924,-0.40045166,-25.265625,-5.21875,10.171875
84,1695727959466,-0.15356445,-0.72979736,-0.52227783,-26.71875,-6.09375,1.875
85,1695727959506,0.2548828,-0.98101807,-0.2210083,-15.953125,0.515625,4.828125
86,1695727959545,0.29223633,-1.7522583,0.06536865,18.453125,3.28125,-5.953125
87,1695727959587,-0.24707031,-1.1204224,-0.14678955,-16.1875,22.78125,-0.78125
88,1695727959628,0.30151367,-0.7190552,-0.46221924,-22.6875,20.421875,4.484375
89,1695727959667,0.57250977,-0.70269775,-0.10845947,23.296875,-20.125,-0.734375
90,1695727959709,0.063964844,-0.9390259,-0.062072754,9.1875,-17.171875,4.078125
91,1695727959746,-0.21166992,-0.94244385,-0.16192627,6.34375,4.953125,4.6875
92,1695727959789,0.03564453,-0.7932739,-0.22027588,20.125,14.265625,-6.3125
93,1695727959826,0.13061523,-0.87750244,-0.26983643,8.8125,15.625,-13.671875
94,1695727959867,0.16333008,-0.8374634,-0.1585083,21.640625,-1.140625,-20.625
95,1695727959910,-0.020263672,-1.1089478,-0.17999268,24.40625,-1.90625,-23.5625
96,1695727959946,-0.095214844,-1.1697388,-0.4397583,-1.34375,9.921875,-14.59375
97,1695727959986,-0.076660156,-1.0137329,-0.47149658,10.84375,20.765625,-7.15625
98,1695727960028,-0.20214844,-0.92852783,-0.4644165,16.515625,0.171875,-12.28125
99,1695727960066,-0.15332031,-0.9373169,-0.3850708,-2.609375,-0.28125,-5.71875
100,1695727960106,-0.18701172,-1.0422974,-0.35772705,-6.5625,0.40625,4.0
101,1695727960150,-0.2565918,-0.93463135,-0.36993408,-14.15625,1.609375,7.515625
102,1695727960186,-0.26049805,-0.6506958,-0.41534424,-14.578125,9.546875,1.796875
103,1695727960227,-0.29956055,-0.6392212,-0.38360596,-11.953125,3.1875,-1.921875
104,1695727960287,-0.053710938,-0.82476807,-0.36016846,-2.953125,-0.953125,7.859375
105,1695727960289,0.034179688,-0.9500122,-0.20587158,9.5,-12.828125,14.5625
106,1695727960326,-0.16040039,-0.7781372,-0.3069458,-8.53125,-21.8125,20.3125
107,1695727960407,-0.21582031,-0.83551025,-0.54644775,-12.9375,-11.390625,13.78125
108,1695727960409,0.2121582,-1.0149536,-0.4126587,5.859375,-23.71875,9.78125
109,1695727960446,0.328125,-1.4851685,-0.11480713,-3.8125,-14.875,20.3125
110,1695727960486,-0.30029297,-1.034729,-0.23565674,-34.296875,2.5625,5.375
111,1695727960526,0.08984375,-0.98760986,-0.25982666,2.703125,0.5625,-8.078125
112,1695727960566,0.30273438,-0.9963989,-0.14630127,-10.125,-1.828125,0.78125
113,1695727960606,0.17016602,-0.8740845,-0.20758057,5.515625,0.921875,1.921875
114,1695727960646,0.035888672,-0.75567627,-0.09576416,5.4375,-10.21875,-0.28125
115,1695727960692,0.046875,-0.6201782,-0.06524658,3.6875,-6.75,-8.28125
116,1695727960727,0.076660156,-0.7761841,-0.121398926,5.03125,-0.4375,-1.078125
117,1695727960765,0.076171875,-0.90216064,-0.19952393,1.34375,-1.4375,-9.4375
118,1695727960825,0.02709961,-1.1001587,-0.35479736,15.53125,0.140625,-17.46875
119,1695727960886,0.122802734,-1.2566528,-0.38458252,12.78125,-16.015625,-17.34375
120,1695727960888,0.045898438,-1.3045044,-0.23638916,19.875,1.71875,-5.09375
121,1695727960925,-0.3881836,-0.90704346,-0.47711182,-18.0625,7.125,1.4375
122,1695727960966,-0.061279297,-0.7490845,-0.40875244,0.65625,7.15625,-11.328125
123,1695727961006,0.064453125,-1.0125122,-0.31256104,4.59375,1.953125,2.859375
124,1695727961047,-0.12451172,-0.9624634,-0.35308838,-11.859375,7.640625,4.109375
125,1695727961086,-0.16894531,-0.8093872,-0.33599854,-0.484375,3.890625,-1.390625
126,1695727961126,-0.1274414,-0.7078247,-0.3057251,-6.453125,3.734375,4.203125
127,1695727961167,-0.072753906,-0.7949829,-0.38775635,-0.03125,-0.171875,5.9375
128,1695727961207,0.007080078,-0.98565674,-0.27642822,3.203125,-1.765625,7.046875
129,1695727961247,-0.118896484,-0.881897,-0.34796143,-15.59375,-17.578125,14.1875
130,1695727961308,-0.22460938,-0.8008423,-0.44049072,-19.59375,-10.5625,7.25
131,1695727961325,0.13183594,-1.133606,-0.31085205,-22.78125,7.53125,11.125
132,1695727961366,0.3491211,-1.56427,0.054870605,-17.34375,-6.125,0.109375
133,1695727961405,-0.04736328,-1.2080688,-0.07891846,-14.171875,33.921875,-4.921875
134,1695727961445,-0.012451172,-0.7822876,-0.38116455,-28.859375,16.34375,-6.515625
135,1695727961485,0.3413086,-0.64434814,-0.10723877,12.0625,4.765625,4.703125
136,1695727961525,0.3293457,-0.7998657,0.0026245117,-7.984375,-8.28125,9.453125
137,1695727961566,0.0036621094,-0.7427368,-0.05206299,14.546875,-6.03125,-1.859375
138,1695727961587,-0.0012207031,-0.81573486,-0.14361572,3.359375,-3.734375,2.59375
139,1695727961628,0.10961914,-0.83673096,-0.062561035,-6.65625,-7.703125,1.6875
140,1695727961667,0.05859375,-1.2124634,-0.0012817383,6.390625,1.109375,-22.3125
141,1695727961707,-0.09863281,-1.3845825,-0.19464111,-1.75,6.609375,-39.640625
142,1695727961746,0.10253906,-1.1936646,-0.27301025,2.34375,4.703125,-20.328125
143,1695727961787,0.17919922,-1.1594849,-0.15753174,7.09375,2.28125,-3.40625
144,1695727961825,-0.37280273,-0.81866455,-0.24835205,-6.09375,-6.484375,-5.8125
145,1695727961868,-0.34204102,-0.70758057,-0.33795166,0.6875,-3.140625,-12.390625
146,1695727961905,0.020751953,-1.0115356,-0.19586182,16.71875,4.6875,3.515625
147,1695727961945,-0.040283203,-1.0960083,-0.17462158,8.09375,-5.703125,10.703125
148,1695727961986,-0.17822266,-0.8479614,-0.3069458,-0.546875,2.03125,0.359375
149,1695727962028,-0.2019043,-0.73223877,-0.22589111,4.921875,-7.625,8.90625
150,1695727962066,-0.09106445,-0.9155884,-0.21051025,4.0625,-3.765625,15.6875
151,1695727962106,-0.0637207,-0.99346924,-0.031799316,4.046875,0.0625,15.78125
152,1695727962148,-0.21948242,-0.894104,-0.4368286,-44.1875,-10.34375,19.203125
153,1695727962187,-0.25170898,-1.0120239,-0.4492798,-8.765625,-4.453125,8.828125
154,1695727962229,0.54003906,-1.6865845,0.2682495,12.734375,-10.0625,21.0625
155,1695727962267,0.06640625,-0.9368286,-0.101135254,-33.984375,17.703125,5.65625
156,1695727962307,-0.11328125,-0.83966064,-0.32574463,-7.0625,12.609375,-7.3125
157,1695727962347,0.1850586,-0.9846802,-0.04498291,19.59375,0.9375,-7.75
158,1695727962387,0.3112793,-0.8098755,-0.0068969727,-4.578125,7.6875,0.453125
159,1695727962429,0.22045898,-0.6355591,-0.07208252,-5.703125,-13.375,3.53125
160,1695727962466,0.0026855469,-0.7739868,-0.009094238,11.46875,-14.3125,-2.25
161,1695727962508,-0.011962891,-1.0151978,0.020935059,0.765625,-0.859375,-7.828125
162,1695727962546,0.033691406,-1.0066528,-0.04498291,8.03125,16.359375,-19.390625
163,1695727962605,0.088134766,-1.116272,-0.3262329,-5.390625,2.484375,-22.296875
164,1695727962626,0.014160156,-1.3184204,-0.2559204,12.75,-2.203125,0.828125
165,1695727962667,-0.18017578,-1.060852,-0.1404419,3.453125,7.859375,9.46875
166,1695727962709,-0.28710938,-0.94610596,-0.27008057,4.859375,-0.71875,-13.0625
167,1695727962746,-0.10449219,-1.2114868,-0.25201416,8.5625,26.53125,3.828125
168,1695727962786,-0.061523438,-1.0872192,-0.2703247,-7.796875,14.203125,8.109375
169,1695727962827,-0.1472168,-0.798645,-0.26983643,1.5625,9.328125,-10.84375
170,1695727962868,-0.15527344,-0.77178955,-0.1716919,-7.53125,11.1875,4.9375
171,1695727962885,-0.061035156,-0.7214966,-0.22198486,-9.46875,3.4375,16.765625
172,1695727962927,0.09082031,-0.8440552,-0.17242432,-1.59375,1.796875,11.890625
173,1695727962966,-0.083740234,-0.9805298,-0.1819458,1.625,-19.65625,14.0
174,1695727963011,-0.19604492,-0.99713135,-0.28692627,-16.4375,4.921875,10.40625
175,1695727963046,0.3395996,-1.3401489,-0.11456299,-2.859375,-5.234375,-2.0625
176,1695727963085,0.11010742,-1.2022095,0.011169434,-2.546875,-7.40625,-1.796875
177,1695727963127,-0.2175293,-1.0073853,-0.12359619,-17.046875,15.390625,-5.0625
178,1695727963166,0.22729492,-0.9314575,-0.04888916,10.53125,8.25,-6.046875
179,1695727963206,0.41088867,-0.8657837,0.035827637,-7.421875,2.578125,6.484375
180,1695727963246,0.05883789,-0.6079712,-0.11505127,-1.6875,-7.890625,12.875
181,1695727963286,-0.057617188,-0.81451416,-0.06060791,12.125,-11.921875,-6.28125
182,1695727963351,0.1105957,-1.0623169,0.11077881,13.8125,-12.453125,-7.609375
183,1695727963365,0.17919922,-1.0574341,0.02532959,-6.015625,8.359375,-10.0625
184,1695727963405,-0.029785156,-0.87701416,-0.25421143,3.75,3.90625,-29.25
185,1695727963447,-0.076660156,-1.1172485,-0.2942505,15.96875,-10.125,-28.609375
186,1695727963486,-0.15893555,-1.2444458,-0.20269775,10.6875,2.96875,8.171875
187,1695727963527,-0.32788086,-1.0264282,-0.30230713,-7.234375,-2.9375,-0.546875
188,1695727963565,-0.10644531,-1.1160278,-0.25299072,17.171875,2.03125,-11.28125
189,1695727963605,0.013671875,-1.1011353,-0.24884033,-0.046875,4.671875,5.0625
190,1695727963646,-0.09765625,-0.90289307,-0.34405518,-3.671875,5.03125,-6.125
191,1695727963686,-0.31103516,-0.84942627,-0.28375244,6.546875,-2.390625,-5.640625
192,1695727963728,-0.15991211,-0.79351807,-0.20367432,-8.25,4.859375,18.296875
193,1695727963766,-0.0036621094,-0.7258911,-0.16705322,-0.609375,-4.9375,22.296875
194,1695727963805,-0.0546875,-0.8648071,-0.18878174,13.71875,-3.078125,12.390625
195,1695727963847,-0.16186523,-1.0906372,-0.36993408,-11.84375,-14.96875,8.65625
196,1695727963885,-0.25683594,-0.90802,-0.35528564,-15.71875,-0.265625,4.453125
197,1695727963926,0.16113281,-1.1912231,-0.20220947,-18.375,8.5,11.609375
198,1695727963965,0.25976562,-1.4299927,0.054382324,-13.265625,1.625,-9.109375
199,1695727964006,-0.2199707,-0.991272,-0.031555176,-14.390625,26.28125,-6.8125
200,1695727964046,0.06542969,-0.90826416,-0.10479736,-5.8125,6.78125,3.859375
201,1695727964086,0.42700195,-0.9360962,-0.06085205,0.5625,-5.6875,-1.875
202,1695727964132,0.14697266,-0.8088989,-0.03692627,6.765625,-9.15625,5.4375
203,1695727964206,-0.03955078,-0.73565674,-0.058654785,9.03125,-9.28125,3.890625
204,1695727964208,0.030517578,-0.7017212,0.061462402,23.265625,-11.15625,-3.359375
205,1695727964246,0.064941406,-0.803772,0.04046631,6.265625,1.046875,0.09375
206,1695727964266,0.011230469,-0.9968872,-0.06964111,23.078125,6.28125,-14.59375
207,1695727964307,-0.04711914,-1.1148071,-0.427063,3.21875,-9.46875,-26.953125
208,1695727964346,0.14086914,-1.3467407,-0.30914307,23.078125,1.59375,-15.640625
209,1695727964386,-0.14428711,-1.1065063,-0.34039307,14.0,-0.890625,14.703125
210,1695727964427,-0.3544922,-0.85162354,-0.4109497,6.28125,5.78125,-0.578125
211,1695727964466,-0.21777344,-1.0562134,-0.3255005,22.15625,4.203125,-2.0625
212,1695727964505,-0.1015625,-1.0684204,-0.39361572,-8.203125,15.140625,7.9375
213,1695727964548,-0.091308594,-0.9512329,-0.30499268,10.375,17.375,5.375
214,1695727964585,-0.034179688,-0.7793579,-0.31695557,-13.40625,10.953125,-1.09375
215,1695727964646,-0.03466797,-0.72662354,-0.3411255,-2.9375,-3.765625,9.71875
216,1695727964667,-0.05053711,-0.7727661,-0.3106079,-6.4375,-9.28125,20.125
217,1695727964707,-0.15307617,-0.8584595,-0.18121338,7.40625,-8.515625,13.671875
218,1695727964746,-0.18603516,-1.0266724,-0.36212158,-15.90625,-4.171875,9.578125
219,1695727964785,-0.024658203,-0.833313,-0.44830322,-18.09375,7.578125,13.0
220,1695727964830,0.2614746,-1.2576294,-0.20465088,-12.75,-5.5625,16.265625
221,1695727964866,0.15991211,-1.2793579,0.012634277,-13.546875,2.09375,-6.640625
222,1695727964906,0.1159668,-0.9746704,-0.13970947,-16.984375,19.109375,0.8125
223,1695727964947,0.16235352,-0.8640747,-0.13360596,-5.921875,-3.65625,2.53125
224,1695727964986,0.118896484,-0.9631958,-0.101135254,-9.53125,0.78125,-4.578125
225,1695727965048,0.119384766,-0.94903564,-0.049621582,-4.671875,-2.453125,1.28125
226,1695727965068,0.13842773,-0.7329712,-0.041809082,-10.265625,-4.90625,-7.9375
227,1695727965106,0.23461914,-0.6514282,-0.034729004,-11.8125,-11.671875,-5.015625
228,1695727965156,0.09765625,-0.8970337,0.10858154,4.328125,-0.625,-6.875
229,1695727965185,-0.16210938,-1.0567017,-0.2119751,-2.046875,-4.03125,-26.25
230,1695727965226,-0.13500977,-1.0454712,-0.29058838,-0.671875,0.921875,-18.640625
231,1695727965266,0.17480469,-1.2234497,-0.086242676,21.71875,7.140625,-2.90625
232,1695727965306,-0.19750977,-1.062561,-0.24908447,-5.6875,0.125,0.3125
233,1695727965346,-0.08911133,-1.2026978,-0.20831299,22.21875,-0.625,-4.421875
234,1695727965386,-0.12402344,-1.2078247,-0.2390747,-4.9375,-3.6875,7.21875
235,1695727965430,-0.24267578,-0.9614868,-0.20904541,-3.34375,8.453125,4.25
236,1695727965469,-0.21655273,-0.82159424,-0.12384033,7.296875,9.5,-3.5
237,1695727965506,-0.064697266,-0.70025635,-0.33062744,-16.40625,2.671875,15.25
238,1695727965527,0.25,-0.9216919,-0.16534424,-2.71875,-4.578125,17.75
239,1695727965565,0.087402344,-0.91485596,-0.023254395,-7.609375,-21.734375,14.859375
240,1695727965609,-0.2685547,-0.68829346,-0.14263916,-9.5625,-8.6875,12.15625
241,1695727965666,-0.10131836,-0.7727661,-0.28936768,-19.375,12.984375,16.296875
242,1695727965685,0.4453125,-1.319397,0.20159912,-10.984375,-0.078125,6.5625
243,1695727965746,-0.030517578,-1.5281372,-0.066467285,-17.875,21.0,-18.40625
244,1695727965765,0.16772461,-1.0696411,-0.2366333,3.59375,9.28125,-11.375
245,1695727965807,0.44702148,-0.8933716,0.09075928,19.859375,-3.703125,12.328125
246,1695727965846,0.2541504,-0.95025635,0.025817871,-9.28125,-10.203125,11.765625
247,1695727965886,-0.10205078,-1.0220337,-0.043518066,12.296875,-7.53125,-5.546875
248,1695727965926,-0.07910156,-0.9155884,-0.0178833,-2.578125,4.546875,-20.921875
249,1695727965965,0.23046875,-0.7192993,-0.00592041,-5.6875,12.5625,-16.96875
250,1695727966006,0.104003906,-0.6802368,0.039245605,-8.0625,-1.65625,-13.78125
251,1695727966045,-0.1574707,-0.75909424,-0.26031494,0.0625,-7.484375,-21.328125
252,1695727966086,-0.067871094,-1.1807251,-0.17779541,21.875,7.6875,-13.1875
253,1695727966146,0.0014648438,-1.3130493,-0.1272583,16.90625,8.015625,11.578125
254,1695727966166,-0.23852539,-1.1082153,-0.32574463,14.15625,-2.1875,-13.03125
255,1695727966206,-0.22509766,-1.2002563,-0.28692627,-1.796875,1.125,1.546875
256,1695727966247,-0.06933594,-1.0994263,-0.22906494,16.78125,5.90625,3.40625
257,1695727966285,-0.2006836,-1.0864868,-0.16412354,20.28125,12.359375,-0.890625
258,1695727966326,-0.22070312,-0.9055786,-0.11798096,7.921875,22.390625,9.75
259,1695727966386,-0.14868164,-0.6904907,-0.25445557,-9.765625,15.21875,20.890625
260,1695727966405,-0.15478516,-0.6091919,-0.3279419,-19.796875,4.484375,19.28125
261,1695727966446,0.03955078,-0.81451416,-0.09210205,18.8125,-9.96875,17.65625
262,1695727966486,0.17480469,-0.94073486,-0.25860596,-5.640625,3.515625,23.796875
263,1695727966525,0.5661621,-1.0906372,-0.1765747,-24.609375,11.90625,23.6875
264,1695727966565,0.15722656,-1.0671997,-0.101379395,12.8125,-15.125,-3.609375
265,1695727966608,-0.27026367,-1.2207642,-0.1416626,-6.1875,2.625,-10.484375
266,1695727966645,0.22045898,-1.0808716,-0.19146729,-3.09375,4.234375,-2.3125
267,1695727966686,0.4753418,-1.0003052,-0.073791504,11.625,-6.1875,-6.5625
268,1695727966728,0.2199707,-1.0435181,-0.1104126,4.90625,-10.140625,-0.046875
269,1695727966764,-0.080078125,-0.81744385,-0.11236572,-0.4375,-10.28125,-14.125
270,1695727966806,-0.037109375,-0.7337036,0.016540527,1.109375,-0.234375,-18.84375
271,1695727966827,0.11669922,-0.7683716,0.07635498,-2.78125,5.34375,-18.59375
272,1695727966866,0.035888672,-0.7749634,-0.15289307,0.796875,6.71875,-17.734375
273,1695727966927,-0.1496582,-0.8777466,-0.54693604,5.4375,1.0625,-8.5625
274,1695727966946,0.171875,-1.4087524,-0.2666626,38.046875,0.78125,-7.171875
275,1695727966987,-0.2199707,-1.210022,-0.30426025,17.421875,-12.671875,14.625
276,1695727967027,-0.38378906,-1.0037231,-0.3381958,-0.921875,2.96875,-8.09375
277,1695727967067,-0.17333984,-1.2383423,-0.2053833,22.484375,7.0625,1.546875
278,1695727967107,-0.15771484,-1.1067505,-0.42608643,-15.390625,15.0,10.03125
279,1695727967146,-0.09643555,-0.6838989,-0.31304932,-4.625,25.03125,3.265625
280,1695727967186,-0.02368164,-0.6560669,-0.24932861,11.625,-6.8125,9.84375
281,1695727967230,-0.11450195,-0.63238525,-0.26348877,-4.078125,-6.546875,18.25
282,1695727967267,-0.06665039,-0.6914673,-0.222229,1.53125,-8.34375,8.96875
283,1695727967306,-0.1628418,-0.6704712,-0.46759033,-8.375,-6.28125,4.34375
284,1695727967349,0.47753906,-1.024231,-0.44732666,-21.875,0.578125,9.359375
285,1695727967387,0.25756836,-1.8692017,0.19720459,19.25,-24.046875,4.875
286,1695727967427,-0.3486328,-1.1548462,-0.33746338,-12.5,15.953125,7.984375
287,1695727967467,0.1081543,-0.73223877,-0.44049072,-20.265625,13.96875,-8.953125
288,1695727967510,0.6281738,-0.9168091,-0.04449463,45.328125,-14.421875,-3.484375
289,1695727967546,0.08959961,-1.0967407,-0.14190674,-5.484375,-8.59375,1.234375
290,1695727967588,-0.30908203,-0.85601807,-0.3760376,8.109375,13.5625,-14.90625
291,1695727967628,-0.03955078,-0.6572876,-0.049621582,27.171875,-0.703125,-19.125
292,1695727967667,0.11279297,-0.75323486,-0.0881958,-3.5,13.125,-13.578125
293,1695727967707,0.10205078,-0.93756104,-0.3369751,-7.453125,14.125,-10.875
294,1695727967748,0.10839844,-0.9751587,-0.4902954,-12.0,-11.921875,-13.84375
295,1695727967786,0.15478516,-1.1692505,-0.42388916,29.03125,-2.15625,-1.03125
296,1695727967828,-0.37548828,-1.1653442,-0.40753174,13.34375,-4.59375,6.015625
297,1695727967866,-0.6008301,-0.87457275,-0.3916626,5.609375,5.03125,-11.59375
298,1695727967908,0.036376953,-0.9768677,-0.5064087,-11.015625,16.859375,8.515625
299,1695727967947,0.13964844,-1.0657349,-0.4360962,0.65625,6.359375,10.15625
300,1695727967988,-0.16870117,-0.7984009,-0.36212158,16.734375,9.09375,-3.09375
301,1695727968028,-0.40014648,-0.69732666,-0.37261963,-8.078125,4.265625,6.9375
302,1695727968067,-0.16845703,-0.6626587,-0.36260986,-6.28125,3.203125,9.859375
303,1695727968107,0.0546875,-0.66729736,-0.2588501,-1.53125,-9.5,6.75
304,1695727968130,-0.03491211,-0.75909424,-0.3147583,-1.875,-18.953125,7.9375
305,1695727968166,-0.16918945,-0.88946533,-0.5171509,-7.8125,-6.9375,5.484375
306,1695727968206,0.3203125,-1.194397,-0.44830322,-28.953125,-9.375,7.546875
307,1695727968246,0.21435547,-1.4234009,0.07904053,-9.265625,15.4375,-0.53125
308,1695727968285,-0.2927246,-1.0305786,-0.40045166,-11.296875,11.0625,-7.359375
309,1695727968327,0.122558594,-0.8196411,-0.32965088,-1.46875,10.296875,3.484375
310,1695727968366,0.4814453,-1.0125122,0.0048217773,16.328125,-14.515625,9.6875
311,1695727968406,0.114990234,-1.0459595,-0.17144775,-4.3125,-5.015625,1.953125
312,1695727968446,0.0036621094,-0.77789307,-0.27105713,9.09375,-1.71875,-15.46875
313,1695727968486,0.030273438,-0.58551025,-0.10748291,-6.203125,-18.921875,-8.15625
314,1695727968536,0.056884766,-0.81915283,-0.09991455,-12.875,-8.15625,-5.234375
315,1695727968566,-0.1315918,-1.0706177,-0.05621338,3.234375,1.25,-9.875
316,1695727968627,-0.1977539,-0.9612427,-0.40509033,-13.953125,14.78125,-9.890625
317,1695727968646,0.23901367,-0.8491821,-0.52838135,-5.65625,6.75,-8.21875
318,1695727968686,0.1616211,-1.2197876,-0.3970337,20.96875,-9.78125,9.171875
319,1695727968726,-0.5344238,-1.3272095,-0.34454346,14.578125,-8.265625,-13.78125
320,1695727968766,-0.22973633,-1.1260376,-0.28570557,-8.4375,16.65625,2.28125
321,1695727968806,-0.0715332,-0.8989868,-0.4055786,-12.28125,16.625,10.625
322,1695727968846,-0.25341797,-0.7576294,-0.42755127,-7.578125,18.03125,-9.4375
323,1695727968886,-0.055419922,-0.769104,-0.2781372,-3.328125,4.625,1.9375
324,1695727968926,0.06567383,-0.7451782,-0.24151611,-17.625,-11.234375,24.828125
325,1695727968966,-0.016845703,-0.73809814,-0.206604,-4.953125,-22.3125,20.375
326,1695727969010,-0.16723633,-0.9385376,-0.28253174,15.609375,-3.484375,3.28125
327,1695727969045,-0.078125,-0.96173096,-0.4590454,-22.53125,0.8125,21.171875
328,1695727969085,0.48608398,-1.1167603,-0.12506104,-7.0625,1.046875,6.53125
329,1695727969126,0.16430664,-1.1734009,-0.12408447,-9.46875,-15.5,-14.75
330,1695727969165,-0.1394043,-1.0274048,-0.15386963,-1.703125,2.734375,0.84375
331,1695727969206,-0.020019531,-0.8731079,-0.15338135,-1.234375,-3.3125,5.875
332,1695727969247,0.22827148,-0.8999634,-0.038635254,-2.6875,-3.390625,-0.640625
333,1695727969286,0.3034668,-0.9859009,-0.049865723,9.3125,-9.71875,-7.453125
334,1695727969327,0.1940918,-0.8340454,-0.12042236,0.015625,-5.59375,-16.78125
335,1695727969366,-0.04321289,-0.70635986,-0.089904785,-4.5625,-6.609375,-3.140625
336,1695727969407,-0.083984375,-0.73321533,-0.01763916,-3.625,-5.390625,-8.953125
337,1695727969427,-0.064208984,-0.8875122,-0.11529541,7.390625,9.078125,-21.640625
338,1695727969467,0.047607422,-1.0303345,-0.50494385,-14.84375,-6.953125,-3.703125
339,1695727969508,0.30859375,-1.5305786,-0.2312622,46.015625,4.46875,2.09375
340,1695727969546,-0.34545898,-1.2473755,-0.27960205,-4.28125,-1.765625,-9.640625
341,1695727969586,-0.375,-1.0440063,-0.44537354,-1.828125,10.140625,-7.578125
342,1695727969628,-0.052490234,-1.0557251,-0.284729,-1.265625,16.59375,15.265625
343,1695727969667,-0.10668945,-0.9776001,-0.2420044,-6.859375,12.734375,16.640625
344,1695727969707,-0.19238281,-0.8989868,-0.2539673,-0.75,20.25,-4.0
345,1695727969747,-0.15844727,-0.7632446,-0.29034424,-8.203125,18.0625,2.671875
346,1695727969788,0.0769043,-0.7542114,-0.29107666,-21.0,4.640625,18.703125
347,1695727969829,0.057617188,-0.7854614,-0.19244385,-8.953125,-11.890625,21.375
348,1695727969865,-0.15112305,-0.88116455,-0.23565674,5.25,-14.453125,13.140625
349,1695727969906,-0.10620117,-0.8569946,-0.3477173,-11.34375,9.828125,15.640625
350,1695727969946,0.7434082,-1.3374634,0.06707764,2.375,-17.15625,17.25
351,1695727969986,0.10986328,-1.1951294,-0.06304932,-10.34375,-3.703125,-10.65625
352,1695727970029,-0.2668457,-0.9841919,-0.3447876,-14.921875,2.09375,-8.203125
353,1695727970067,0.27197266,-0.92071533,-0.06744385,20.46875,-8.5,0.125
354,1695727970107,0.3557129,-0.9505005,0.14642334,8.984375,-5.21875,7.453125
355,1695727970146,0.13378906,-0.9546509,-0.013244629,0.53125,0.796875,-1.5625
356,1695727970185,-0.010253906,-0.7764282,-0.17022705,13.1875,-4.875,-21.8125
357,1695727970226,-0.038085938,-0.69244385,-0.07867432,8.671875,-0.734375,-9.890625
358,1695727970266,0.17236328,-0.79229736,0.0060424805,-3.5,-4.828125,-21.625
359,1695727970307,-0.0043945312,-0.9019165,-0.16558838,16.25,13.875,-28.15625
360,1695727970347,-0.1003418,-0.9458618,-0.4517212,5.65625,-11.046875,-17.640625
361,1695727970388,0.1862793,-1.2991333,-0.32965088,35.15625,8.0625,-2.125
362,1695727970429,-0.2368164,-1.1882935,-0.46173096,2.25,-12.984375,13.765625
363,1695727970466,-0.30395508,-1.1184692,-0.39508057,6.046875,0.375,-5.8125
364,1695727970507,0.004638672,-1.203186,-0.3513794,3.53125,7.65625,23.03125
365,1695727970547,-0.15454102,-0.97906494,-0.45220947,-16.171875,1.875,7.109375
366,1695727970588,-0.18725586,-0.82159424,-0.35772705,7.34375,11.953125,-3.03125
367,1695727970630,0.0021972656,-0.7319946,-0.2107544,0.46875,12.328125,11.90625
368,1695727970667,0.038330078,-0.66412354,-0.2119751,-12.453125,-5.96875,15.078125
369,1695727970707,-0.13793945,-0.71954346,-0.34552002,-5.21875,-5.453125,15.625
370,1695727970727,-0.060058594,-0.83843994,-0.5628052,-5.78125,-24.328125,1.953125
371,1695727970766,0.25805664,-1.0071411,-0.23370361,5.359375,2.59375,15.734375
372,1695727970808,0.53930664,-1.2717896,0.13641357,0.15625,-0.6875,14.84375
373,1695727970846,-0.18383789,-0.8591919,-0.29156494,-27.4375,-3.796875,-13.90625
374,1695727970887,-0.08862305,-0.9536743,-0.34381104,-8.359375,10.359375,-5.96875
375,1695727970926,0.48632812,-1.0747681,-0.0056762695,14.90625,-5.203125,11.640625
376,1695727970986,0.33862305,-1.0940552,-0.045715332,-12.40625,-6.4375,1.5625
377,1695727971008,-0.019042969,-1.019104,-0.27423096,-0.875,1.921875,-14.21875
378,1695727971045,-0.04272461,-0.6914673,-0.16461182,4.53125,-0.703125,-8.125
379,1695727971086,0.14135742,-0.76397705,-0.07745361,-7.234375,2.84375,-1.21875
380,1695727971149,0.14672852,-1.005188,0.09075928,2.609375,12.546875,-10.96875
381,1695727971168,-0.15478516,-0.989563,-0.025939941,-2.15625,23.796875,-27.546875
382,1695727971208,-0.0053710938,-0.77667236,-0.48736572,-23.015625,15.453125,-27.328125
383,1695727971247,0.2529297,-1.1670532,-0.3110962,30.90625,-12.875,-8.078125
384,1695727971287,-0.061523438,-1.4194946,-0.33477783,6.546875,5.328125,16.828125
385,1695727971327,-0.71606445,-0.956604,-0.50567627,-8.28125,6.703125,-16.265625
386,1695727971366,-0.0073242188,-1.0169067,-0.31207275,14.9375,14.1875,3.359375
387,1695727971407,0.27661133,-0.9290161,-0.30914307,-5.265625,5.875,15.734375
388,1695727971445,-0.088378906,-0.940979,-0.33184814,19.8125,9.15625,-3.640625
389,1695727971485,-0.32421875,-0.90411377,-0.2571411,-4.0,3.25,-0.5
390,1695727971526,-0.25048828,-0.7149048,-0.2883911,-11.015625,-7.640625,11.140625
391,1695727971568,-0.0026855469,-0.73760986,-0.27520752,-8.234375,8.640625,7.9375
392,1695727971610,-0.010986328,-0.8960571,-0.1897583,-4.203125,-8.921875,12.328125
393,1695727971646,-0.10229492,-1.0420532,-0.28448486,-9.640625,-7.265625,10.078125
394,1695727971685,-0.012451172,-1.0020142,-0.54473877,-39.234375,-9.953125,-1.84375
395,1695727971725,0.2043457,-1.0689087,-0.13531494,-9.09375,-5.21875,10.59375
396,1695727971765,0.12695312,-1.284729,0.20159912,-0.421875,0.84375,5.0625
397,1695727971806,-0.21411133,-0.94073486,-0.19268799,-31.828125,24.5,-7.40625
398,1695727971845,0.1586914,-0.8538208,-0.101867676,9.953125,6.53125,-4.375
399,1695727971887,0.43896484,-1.0339966,0.043395996,-4.4375,-11.859375,-0.09375
400,1695727971926,0.15795898,-0.8335571,-0.09185791,-2.515625,-2.828125,4.90625
401,1695727971966,-0.14770508,-0.73687744,-0.09527588,13.0625,-19.3125,1.359375
402,1695727972028,-0.11303711,-0.8308716,0.06536865,8.34375,-10.265625,-2.78125
403,1695727972046,-0.104003906,-0.8423462,0.046813965,-5.890625,6.484375,-8.984375
404,1695727972066,0.07006836,-1.0203247,-0.046447754,5.265625,20.03125,-21.515625
405,1695727972108,0.23925781,-1.1309204,-0.46392822,-16.390625,-10.40625,-10.28125
406,1695727972146,0.3461914,-1.3665161,-0.109680176,39.796875,-14.296875,3.59375
407,1695727972185,-0.40576172,-1.2261353,-0.3045044,-11.484375,3.984375,4.1875
408,1695727972230,-0.6921387,-0.89190674,-0.3477173,2.515625,10.640625,-12.625
409,1695727972267,0.15112305,-1.0498657,-0.20562744,9.890625,15.125,11.578125
410,1695727972306,0.3762207,-0.95928955,-0.17852783,-5.828125,13.296875,15.953125
411,1695727972347,-0.13232422,-0.94244385,-0.21710205,9.03125,-1.9375,-4.59375
412,1695727972388,-0.50097656,-0.8557739,-0.2576294,-2.21875,8.3125,0.421875
413,1695727972427,-0.13183594,-0.7420044,-0.19464111,-11.203125,0.46875,19.984375
414,1695727972466,0.25390625,-0.71295166,-0.11114502,-6.15625,-4.234375,19.15625
415,1695727972507,0.059814453,-0.975647,-0.10845947,0.609375,-16.078125,15.0625
416,1695727972546,-0.27270508,-0.8999634,-0.4307251,-21.234375,5.125,19.3125
417,1695727972586,0.36938477,-1.2026978,-0.33551025,-26.125,-14.5,4.359375
418,1695727972627,0.32348633,-1.6218872,0.42425537,22.328125,-3.9375,4.84375
419,1695727972668,-0.20336914,-1.0437622,-0.29229736,-44.5625,23.046875,-2.984375
420,1695727972708,0.16845703,-0.8362427,-0.22515869,6.15625,2.328125,-9.828125
421,1695727972765,0.501709,-0.895813,0.17547607,10.3125,1.859375,11.5625
422,1695727972785,0.34521484,-0.85528564,-0.04547119,-10.046875,-0.828125,-3.40625
423,1695727972826,0.083740234,-0.7529907,-0.009338379,8.203125,-6.609375,-5.578125
424,1695727972865,0.04296875,-0.66729736,0.016540527,14.125,-9.515625,6.625
425,1695727972906,-0.11376953,-0.6814575,-0.054504395,-4.703125,-11.984375,-2.21875
426,1695727972947,0.08911133,-1.0012817,0.007751465,-7.03125,12.078125,-12.59375
427,1695727972990,0.26220703,-1.5447388,-0.14898682,16.5625,-4.59375,-32.90625
428,1695727973027,0.14086914,-1.6299438,-0.0791626,13.234375,-6.65625,-19.9375
429,1695727973067,-0.013916016,-1.1209106,-0.19464111,-5.765625,22.671875,7.640625
430,1695727973107,-0.28320312,-0.5606079,-0.30255127,-1.25,0.75,-5.96875
431,1695727973147,-0.1628418,-0.7529907,-0.2571411,19.609375,5.6875,-3.296875
432,1695727973187,0.04296875,-1.0515747,-0.15655518,2.765625,20.578125,16.4375
433,1695727973227,0.035888672,-1.0154419,-0.14581299,6.9375,5.765625,5.75
434,1695727973267,-0.092041016,-0.85040283,-0.1921997,3.25,16.140625,1.40625
435,1695727973308,-0.04321289,-0.8110962,-0.33917236,-7.28125,-5.296875,11.515625
436,1695727973348,0.044677734,-0.90997314,-0.23834229,1.140625,-8.890625,23.015625
437,1695727973367,-0.07495117,-1.1375122,-0.17779541,-3.4375,-16.359375,10.984375
438,1695727973406,-0.26586914,-1.06427,-0.12017822,-11.609375,11.4375,8.4375
439,1695727973446,0.42626953,-1.1699829,-0.25567627,-14.453125,23.765625,1.78125
440,1695727973485,0.4033203,-1.2163696,-0.034729004,-11.515625,6.828125,-14.953125
441,1695727973526,0.103515625,-1.0337524,-0.0713501,-3.765625,5.125,5.0
442,1695727973585,0.020019531,-0.76812744,-0.10845947,-3.328125,-8.1875,1.390625
443,1695727973606,0.23999023,-0.6812134,0.016540527,0.53125,-14.4375,9.5
444,1695727973647,0.17602539,-0.9011841,0.06903076,-17.484375,-10.265625,8.40625
445,1695727973686,0.12426758,-0.913147,-0.08258057,-9.84375,9.140625,-12.765625
446,1695727973727,0.26660156,-0.75177,-0.038879395,2.421875,-8.328125,-14.25
447,1695727973766,0.18188477,-0.89190674,0.101989746,-7.0,-20.515625,-7.71875
448,1695727973847,-0.12915039,-1.0808716,0.16912842,5.21875,5.015625,-16.859375
449,1695727973849,-0.20507812,-1.1348267,-0.18365479,1.8125,17.125,-32.78125
450,1695727973886,0.19140625,-1.093811,-0.23565674,6.140625,-0.578125,-13.109375
451,1695727973926,0.25732422,-1.3030396,-0.093322754,10.203125,-0.8125,0.796875
452,1695727973966,-0.49389648,-1.1096802,-0.32305908,-4.21875,-10.328125,-11.671875
453,1695727974006,-0.18066406,-1.1060181,-0.14727783,4.28125,-2.640625,13.875
454,1695727974046,0.052978516,-0.93218994,-0.004699707,20.96875,-7.46875,23.828125
455,1695727974086,-0.21777344,-0.89630127,-0.16461182,4.453125,14.90625,0.46875
456,1695727974126,-0.10620117,-0.96661377,-0.22149658,4.421875,7.796875,-1.8125
457,1695727974166,0.1821289,-0.88604736,-0.1506958,-1.40625,-9.578125,14.765625
458,1695727974207,0.004638672,-0.83673096,-0.2263794,-11.1875,-21.4375,18.53125
459,1695727974246,-0.15454102,-0.78009033,-0.2649536,-0.796875,-13.421875,15.625
460,1695727974287,0.0031738281,-0.8262329,-0.12042236,7.53125,-3.3125,27.109375
461,1695727974326,0.36743164,-1.2456665,0.10638428,-11.359375,0.796875,17.828125
462,1695727974368,0.16601562,-1.4299927,0.024108887,0.46875,23.515625,-1.828125
463,1695727974409,0.1850586,-1.0430298,-0.34576416,-11.59375,13.015625,-6.75
464,1695727974446,0.32177734,-0.7571411,-0.08258057,23.984375,3.890625,-3.671875
465,1695727974486,0.23364258,-0.7180786,-0.12017822,3.515625,-8.171875,6.34375
466,1695727974527,0.29296875,-0.83551025,-0.003967285,3.890625,-5.765625,1.171875
467,1695727974566,0.23706055,-0.81695557,0.09613037,15.515625,-4.4375,-1.609375
468,1695727974606,0.048339844,-0.8189087,-0.12384033,-2.125,-5.578125,7.59375
469,1695727974646,0.022949219,-0.9883423,-0.1519165,-6.875,0.203125,-10.59375
470,1695727974666,0.022216797,-1.289856,0.015563965,9.375,5.484375,-25.953125
471,1695727974707,0.13598633,-1.1038208,-0.2119751,-10.703125,8.8125,-27.90625
472,1695727974747,0.25708008,-0.9522095,-0.26617432,-15.09375,-6.578125,-10.453125
473,1695727974805,0.0859375,-1.0901489,-0.13726807,15.6875,9.859375,2.8125
474,1695727974824,-0.24145508,-1.140686,-0.18658447,9.34375,1.890625,-8.015625
475,1695727974865,-0.0690918,-1.0703735,-0.2888794,-3.015625,5.515625,-6.5
476,1695727974925,0.06591797,-0.8711548,-0.23394775,-0.96875,5.796875,5.78125
477,1695727974945,-0.015380859,-0.85406494,-0.1843872,-2.515625,-4.796875,-0.625
478,1695727974987,-0.115234375,-0.91363525,-0.16729736,-0.125,6.703125,10.671875
479,1695727975028,-0.06762695,-0.8399048,-0.19903564,-1.53125,-0.203125,14.734375
480,1695727975066,0.011962891,-0.8897095,-0.105529785,7.125,-5.9375,5.046875
481,1695727975107,0.026123047,-0.9265747,-0.29864502,-15.015625,-7.078125,9.265625
482,1695727975166,-0.11767578,-0.80426025,-0.3862915,-31.875,7.15625,1.890625
483,1695727975187,0.33569336,-1.3831177,-0.045959473,8.5625,-8.890625,0.6875
484,1695727975227,0.020751953,-1.4190063,0.16400146,-8.421875,5.4375,-5.140625
485,1695727975286,-0.008056641,-0.9859009,-0.16949463,-13.84375,24.28125,-4.5
486,1695727975307,0.28833008,-0.6421509,-0.046936035,8.46875,6.625,-3.125
487,1695727975366,0.2734375,-0.72052,0.024353027,-0.203125,0.828125,6.875
488,1695727975388,0.31982422,-0.8789673,-0.1482544,-12.78125,-5.859375,4.078125
489,1695727975427,0.118896484,-1.0698853,0.013366699,26.96875,-15.515625,-1.109375
490,1695727975470,0.059570312,-0.91290283,0.04559326,-7.28125,-9.46875,7.078125
491,1695727975507,0.12573242,-0.9927368,0.005065918,-8.6875,-7.71875,4.3125
492,1695727975547,0.026855469,-1.2129517,0.13079834,15.0,16.15625,-9.96875
493,1695727975587,-0.004638672,-1.0801392,-0.070617676,1.046875,15.734375,-37.234375
494,1695727975626,0.16357422,-0.8635864,-0.29693604,-14.046875,10.578125,-30.328125
495,1695727975667,0.28076172,-0.9961548,-0.02960205,9.21875,5.71875,0.140625
496,1695727975706,-0.1003418,-1.0447388,-0.15020752,-0.546875,4.65625,-1.546875
497,1695727975766,-0.61621094,-0.8982544,-0.29180908,2.0,9.671875,-19.796875
498,1695727975788,0.052734375,-0.96588135,-0.24224854,1.875,7.09375,-1.5
499,1695727975827,0.19873047,-1.2700806,-0.08355713,2.671875,-2.125,15.5625
500,1695727975866,-0.14086914,-1.140686,-0.09503174,-6.4375,-2.796875,-2.015625
501,1695727975925,-0.3869629,-0.8682251,-0.15411377,-5.15625,1.0,1.875
502,1695727975945,-0.15625,-0.7505493,-0.19415283,-7.90625,-1.265625,19.0
503,1695727975965,0.22167969,-0.9043579,-0.02545166,-17.875,-4.4375,8.375
504,1695727976005,-0.037597656,-0.73883057,-0.14678955,-8.15625,-7.109375,2.90625
505,1695727976045,0.080322266,-0.6917114,-0.2942505,-16.71875,13.515625,15.296875
506,1695727976086,0.18603516,-1.0994263,0.09051514,-0.375,-24.640625,-0.453125
507,1695727976126,-0.19042969,-1.5601196,0.1515503,8.75,17.921875,-10.59375
508,1695727976165,0.005859375,-1.2859497,-0.08306885,-11.1875,19.09375,-11.796875
509,1695727976206,0.6003418,-1.083313,-0.018859863,6.109375,-1.78125,-7.21875
510,1695727976246,0.2607422,-1.0061646,0.062194824,-5.234375,-20.46875,18.296875
511,1695727976286,-0.18334961,-1.0083618,0.03729248,12.140625,-9.765625,2.828125
512,1695727976326,-0.19042969,-0.7732544,0.11956787,3.734375,-4.96875,-8.90625
513,1695727976366,-0.048828125,-0.5342407,0.15032959,-4.3125,9.375,-11.578125
514,1695727976407,0.06982422,-0.692688,0.050964355,13.875,22.5,-14.28125
515,1695727976446,0.11254883,-0.97442627,-0.29962158,2.1875,11.078125,-25.9375
516,1695727976487,0.11816406,-1.2737427,-0.26983643,33.453125,-19.953125,-4.5625
517,1695727976526,-0.005859375,-1.4741821,-0.01763916,39.125,-9.53125,22.984375
518,1695727976566,-0.71655273,-0.9990845,-0.3694458,-22.546875,3.078125,-10.875
519,1695727976606,-0.17773438,-1.0967407,-0.22369385,22.359375,17.03125,2.171875
520,1695727976645,0.23657227,-1.1294556,-0.10406494,-7.421875,5.359375,11.125
521,1695727976685,-0.0007324219,-0.96173096,-0.28204346,-5.390625,2.296875,-10.59375
522,1695727976725,-0.29907227,-0.8357544,-0.24493408,-1.8125,11.484375,6.921875
523,1695727976765,-0.19335938,-0.7151489,-0.22589111,-9.4375,-6.4375,15.8125
524,1695727976826,0.055664062,-0.77471924,-0.121398926,-16.375,-4.28125,16.921875
525,1695727976846,0.107421875,-0.8518677,-0.14581299,2.390625,-14.109375,14.109375
526,1695727976886,-0.19677734,-1.0344849,-0.3081665,-1.890625,-13.171875,8.71875
527,1695727976926,0.20922852,-1.270813,-0.190979,-7.1875,5.71875,8.34375
528,1695727976966,0.3203125,-1.15094,0.08758545,-16.15625,7.328125,-2.046875
529,1695727977007,0.00390625,-0.9224243,-0.13677979,-7.015625,-9.921875,0.140625
530,1695727977067,0.1381836,-1.0430298,-0.027404785,12.890625,-3.640625,5.453125
531,1695727977085,0.203125,-0.89508057,0.059265137,-11.125,-10.921875,9.796875
532,1695727977126,0.08618164,-0.8164673,0.0036010742,-1.296875,-8.546875,-1.84375
533,1695727977166,0.118652344,-0.87335205,-0.04937744,11.609375,6.828125,-11.4375
534,1695727977207,0.15625,-0.80914307,-0.061584473,1.234375,-8.875,1.171875
535,1695727977267,0.055419922,-0.85528564,0.045837402,-0.625,-8.359375,-4.96875
536,1695727977286,-0.25048828,-1.0603638,-0.011779785,13.703125,19.421875,-22.625
537,1695727977307,-0.017822266,-1.0977173,-0.27789307,-2.34375,12.5625,-22.15625
538,1695727977348,0.44848633,-1.336731,-0.09161377,21.171875,13.171875,-8.453125
539,1695727977386,-0.091796875,-1.1687622,-0.2876587,-16.96875,6.96875,-2.9375
540,1695727977428,-0.38012695,-1.1148071,-0.31402588,8.953125,-10.65625,-7.140625
541,1695727977468,0.052246094,-1.1670532,-0.113586426,12.15625,2.75,26.734375
542,1695727977506,-0.051513672,-0.8821411,-0.12188721,-4.125,7.734375,15.78125
543,1695727977547,-0.18310547,-0.8088989,-0.30645752,-5.734375,7.609375,-7.796875
544,1695727977589,-0.06713867,-0.7334595,-0.25933838,-8.640625,1.640625,3.0
545,1695727977627,0.028564453,-0.77178955,-0.12506104,-0.5,-13.546875,15.390625
546,1695727977666,0.020751953,-0.80841064,-0.11895752,-12.046875,-17.59375,10.921875
547,1695727977709,-0.22363281,-0.93292236,-0.25128174,1.34375,-8.734375,13.515625
548,1695727977749,0.22045898,-1.0828247,-0.35357666,-22.546875,1.671875,4.1875
549,1695727977787,0.6508789,-1.6289673,0.44866943,6.40625,-23.796875,-3.328125
550,1695727977827,-0.13085938,-1.1035767,-0.05645752,-27.421875,9.375,3.578125
551,1695727977867,-0.16186523,-0.8833618,-0.22540283,-13.75,1.375,-10.15625
552,1695727977909,0.42260742,-0.8335571,0.12591553,27.578125,-5.234375,4.03125
553,1695727977948,0.40649414,-0.88482666,0.12030029,-10.84375,0.078125,6.3125
554,1695727977986,0.0126953125,-0.927063,-0.093322754,8.765625,-5.765625,-6.390625
555,1695727978027,-0.03857422,-0.767395,-0.0015258789,1.96875,-6.90625,-4.109375
556,1695727978066,-0.01953125,-0.69854736,0.097351074,0.546875,-3.109375,-5.921875
557,1695727978107,-0.0107421875,-0.9805298,0.15789795,0.359375,15.28125,-25.6875
558,1695727978147,0.013671875,-1.2285767,-0.34210205,0.875,33.8125,-40.3125
559,1695727978186,0.0546875,-1.3262329,-0.17755127,7.109375,-14.1875,-20.0625
560,1695727978227,0.24438477,-1.4234009,0.03778076,14.46875,5.609375,11.1875
561,1695727978267,-0.37719727,-0.95318604,-0.22442627,-17.09375,-7.0,-1.703125
562,1695727978307,-0.23950195,-0.8674927,-0.27911377,11.734375,10.6875,9.6875
563,1695727978347,-0.15600586,-0.8701782,-0.09161377,7.109375,2.828125,14.140625
564,1695727978391,-0.17797852,-0.92510986,-0.2617798,-9.625,15.625,-13.984375
565,1695727978427,0.096191406,-0.87701416,-0.066223145,-1.09375,2.484375,-3.671875
566,1695727978487,0.0625,-0.81036377,-0.06524658,-7.890625,-10.03125,24.453125
567,1695727978507,-0.095947266,-0.84698486,-0.1194458,-10.6875,-11.21875,13.6875
568,1695727978547,-0.31884766,-0.9758911,-0.15020752,5.15625,5.84375,4.984375
569,1695727978566,0.08081055,-1.0108032,-0.09674072,-19.90625,22.140625,19.203125
570,1695727978606,0.51171875,-1.4751587,0.12054443,4.265625,-6.890625,-13.71875
571,1695727978646,-0.07104492,-1.3977661,-0.024475098,-10.65625,11.578125,-2.0625
572,1695727978686,-0.0034179688,-1.0488892,-0.07183838,0.140625,6.671875,4.421875
573,1695727978726,0.25463867,-0.82598877,0.06854248,5.375,3.703125,7.9375
574,1695727978787,0.17626953,-0.79229736,0.09954834,-3.546875,-2.046875,10.0
575,1695727978807,0.018310547,-0.7984009,0.020446777,7.03125,-2.890625,-6.40625
576,1695727978847,0.044433594,-0.6729126,-0.012756348,-2.015625,-3.4375,-9.890625
577,1695727978888,0.099609375,-0.76885986,0.02532959,-3.0,-7.25,-1.484375
578,1695727978926,0.030761719,-1.0671997,0.17572021,13.40625,-10.765625,-9.21875
579,1695727978966,-0.10107422,-1.1299438,0.015808105,1.359375,11.03125,-18.84375
580,1695727979007,-0.12475586,-1.0789185,-0.28741455,7.921875,0.890625,-11.65625
581,1695727979046,0.28588867,-1.4766235,-0.15216064,18.515625,12.9375,-6.6875
582,1695727979087,-0.18188477,-1.1997681,-0.06378174,0.75,-5.390625,-1.625
583,1695727979126,-0.29467773,-0.880188,-0.3250122,-4.203125,-1.75,-5.625
584,1695727979166,-0.06323242,-0.87091064,-0.16583252,5.5625,-2.265625,8.78125
585,1695727979207,-0.12548828,-0.8970337,-0.06036377,4.546875,5.03125,15.15625
586,1695727979246,-0.24194336,-0.9324341,-0.11651611,-5.859375,18.734375,-7.59375
587,1695727979286,-0.057861328,-0.8928833,-0.1921997,6.171875,11.15625,-7.703125
588,1695727979326,0.07861328,-0.87213135,-0.206604,-18.875,-8.359375,18.578125
589,1695727979366,-0.010009766,-0.9849243,-0.20855713,-5.46875,-17.984375,24.734375
590,1695727979406,-0.1899414,-1.1472778,-0.08013916,-5.25,-14.9375,8.171875
591,1695727979446,0.019042969,-1.0354614,-0.11016846,-18.1875,-4.71875,5.09375
592,1695727979489,0.35839844,-1.187561,0.15570068,-0.609375,-6.59375,-5.984375
593,1695727979526,0.0637207,-1.1602173,0.0770874,-9.984375,0.234375,-9.015625
594,1695727979566,-0.033691406,-0.973938,0.04144287,-4.015625,-3.359375,-5.546875
595,1695727979607,0.21459961,-0.7229614,0.022399902,8.25,-2.96875,9.75
596,1695727979647,0.23608398,-0.66119385,-0.039123535,12.34375,-8.265625,5.984375
597,1695727979687,0.05419922,-0.8887329,-0.1116333,20.375,-10.71875,-0.265625
598,1695727979726,0.16357422,-0.9151001,-0.00030517578,1.953125,-18.53125,10.25
599,1695727979766,-0.0063476562,-0.9644165,0.2230835,19.359375,1.15625,6.0625
600,1695727979806,-0.34765625,-0.9985962,0.090270996,6.90625,19.671875,-15.234375
601,1695727979868,-0.09008789,-0.9541626,-0.3928833,-0.765625,32.859375,-31.609375
602,1695727979886,0.48901367,-1.2659302,-0.37164307,9.28125,7.5,-10.3125
603,1695727979907,0.30639648,-1.3482056,-0.2131958,25.1875,-5.046875,26.375
604,1695727979947,-0.5522461,-1.0525513,-0.34649658,0.703125,0.71875,-5.375
605,1695727979986,-0.4284668,-1.0188599,-0.21417236,13.546875,13.671875,-15.03125
606,1695727980026,0.21875,-1.1074829,-0.21954346,-3.59375,21.0,19.96875
607,1695727980066,0.014892578,-0.8809204,-0.32403564,-20.546875,17.984375,1.90625
608,1695727980106,-0.19262695,-0.7131958,-0.28741455,-16.359375,-3.125,-10.078125
609,1695727980147,0.03125,-0.73638916,0.061462402,-1.609375,-10.46875,14.53125
610,1695727980190,-0.03515625,-0.7437134,-0.13848877,-22.703125,7.0625,21.796875
611,1695727980226,-0.20703125,-0.7131958,-0.4451294,-26.9375,-17.109375,1.484375
612,1695727980265,0.21582031,-1.0806274,-0.2185669,7.328125,-1.546875,-1.1875
613,1695727980307,0.5336914,-2.0,0.5873413,-2.40625,-12.5625,-5.75
614,1695727980347,-0.23803711,-1.1289673,-0.16192627,-29.015625,21.34375,-2.34375
615,1695727980388,-0.09301758,-0.81622314,-0.17071533,-2.734375,1.78125,-3.625
616,1695727980427,0.41552734,-0.987854,0.22113037,26.640625,-5.515625,10.09375
617,1695727980467,0.40185547,-0.9824829,0.07366943,-17.5,-8.421875,6.90625
618,1695727980506,0.018554688,-0.7476196,-0.10430908,0.328125,-13.3125,-5.4375
619,1695727980547,-0.1550293,-0.6448364,0.03778076,10.609375,-14.0625,-7.984375
620,1695727980588,-0.16894531,-0.7752075,0.19110107,3.484375,6.140625,-8.96875
621,1695727980627,-0.09057617,-0.9780884,0.11151123,1.359375,28.6875,-15.328125
622,1695727980666,0.092041016,-1.0112915,-0.30474854,3.546875,23.046875,-20.625
623,1695727980707,0.4116211,-1.4678345,-0.113342285,24.1875,-1.53125,-8.359375
624,1695727980747,0.048095703,-1.2996216,-0.22076416,-2.859375,16.234375,18.484375
625,1695727980790,-0.6320801,-1.0403442,-0.42242432,-7.375,-12.453125,-11.390625
626,1695727980827,-0.26904297,-1.1045532,-0.016174316,26.5625,9.59375,3.828125
627,1695727980867,0.14672852,-0.95391846,-0.08282471,-25.96875,13.78125,12.1875
628,1695727980906,-0.078125,-0.84991455,-0.1453247,-6.6875,12.171875,-5.21875
629,1695727980946,-0.19116211,-0.7788696,-0.23150635,0.796875,16.28125,-10.953125
630,1695727980987,-0.033691406,-0.673645,-0.20123291,-14.796875,-2.1875,4.234375
631,1695727981027,0.095214844,-0.75787354,-0.027648926,-8.484375,-13.21875,23.34375
632,1695727981068,0.040527344,-0.9939575,-0.15338135,-15.453125,-24.53125,15.984375
633,1695727981109,-0.17114258,-1.0808716,0.086364746,-10.875,7.4375,13.328125
634,1695727981146,0.18530273,-1.2263794,-0.04888916,-11.28125,-6.171875,16.765625
635,1695727981186,0.22851562,-1.43219,0.15765381,0.65625,8.359375,-18.25
636,1695727981226,0.061035156,-1.1370239,0.04095459,-1.40625,8.84375,0.375
637,1695727981245,0.11450195,-0.85772705,-0.062316895,8.734375,-2.625,3.875
638,1695727981285,0.18847656,-0.83306885,0.0018920898,2.46875,-7.171875,14.640625
639,1695727981326,0.06616211,-0.90802,0.12200928,12.9375,-6.84375,2.703125
640,1695727981366,-0.0024414062,-0.8999634,0.14276123,13.640625,3.71875,-14.4375
641,1695727981406,0.10058594,-0.7144165,0.0836792,-15.53125,-3.375,-19.625
642,1695727981446,-0.010253906,-0.75372314,0.08050537,7.28125,2.875,-22.90625
643,1695727981487,-0.11254883,-1.0794067,-0.26031494,11.296875,6.765625,-23.515625
644,1695727981526,0.0769043,-1.3560181,-0.105285645,-1.609375,-17.921875,-14.53125
645,1695727981566,0.28833008,-1.3814087,-0.04522705,14.953125,2.859375,10.578125
646,1695727981606,-0.55078125,-0.9846802,-0.19293213,-6.703125,-4.015625,-18.859375
647,1695727981646,-0.5593262,-0.973938,-0.27008057,6.46875,12.53125,-18.03125
648,1695727981687,0.014160156,-1.0557251,-0.10211182,10.296875,21.453125,18.171875
649,1695727981726,0.048095703,-1.0234985,-0.11138916,-6.5625,14.671875,2.21875
650,1695727981766,-0.1574707,-0.8147583,-0.20928955,-4.890625,4.734375,-3.109375
651,1695727981806,-0.1953125,-0.80010986,-0.059387207,5.59375,1.234375,18.8125
652,1695727981846,-0.106933594,-0.8740845,0.004333496,10.609375,12.8125,22.828125
653,1695727981886,-0.19506836,-0.9187622,-0.08648682,-4.046875,-4.171875,10.5625
654,1695727981926,0.028808594,-0.8533325,-0.4319458,-25.796875,-15.234375,5.265625
655,1695727981966,0.13769531,-1.000061,-0.2197876,2.171875,3.109375,15.15625
656,1695727982006,0.4724121,-1.6189575,0.29779053,2.359375,-26.015625,4.78125
657,1695727982046,-0.2199707,-1.1289673,-0.009094238,-3.46875,10.203125,2.421875
658,1695727982086,-0.21582031,-0.84747314,-0.16973877,-6.296875,13.671875,1.421875
659,1695727982126,0.4333496,-0.89385986,0.09197998,50.40625,-9.1875,1.390625
660,1695727982166,0.35131836,-0.93463135,-0.08917236,-7.625,-7.34375,9.59375
661,1695727982206,0.15698242,-0.8130493,-0.11529541,12.25,-6.40625,0.359375
662,1695727982246,-0.09399414,-0.87091064,0.01727295,23.578125,-21.21875,-12.75
663,1695727982286,-0.18603516,-0.8345337,0.016296387,-23.765625,7.109375,-15.359375
664,1695727982326,0.029296875,-0.97125244,-0.044006348,5.84375,12.796875,-20.4375
665,1695727982367,0.1081543,-1.1245728,-0.23760986,-2.703125,8.40625,-16.203125
666,1695727982406,0.29785156,-1.3323364,-0.23175049,14.828125,-13.6875,0.390625
667,1695727982445,-0.0017089844,-1.0845337,-0.13555908,13.5625,7.21875,12.5625
668,1695727982486,-0.76538086,-0.87872314,-0.43048096,-8.890625,-11.640625,-11.546875
669,1695727982506,0.025878906,-1.2000122,-0.25445557,10.375,6.0,-3.1875
670,1695727982546,0.22998047,-1.104065,-0.07696533,0.125,0.734375,8.59375
671,1695727982586,-0.17602539,-0.93536377,-0.26837158,-6.515625,-1.421875,-3.90625
672,1695727982629,-0.49682617,-0.8147583,-0.13165283,10.296875,12.984375,0.875
673,1695727982666,-0.24365234,-0.6560669,-0.27471924,-11.5,6.1875,11.546875
674,1695727982706,0.18554688,-0.847229,-0.20709229,-7.015625,14.140625,12.140625
675,1695727982747,0.18383789,-1.0127563,-0.059387207,5.0,-14.34375,9.1875
676,1695727982787,-0.20874023,-0.9585571,-0.35455322,-26.5625,-13.203125,4.171875
677,1695727982830,-0.29663086,-0.6362915,-0.3184204,-25.078125,-1.3125,4.8125
678,1695727982870,0.50561523,-0.954895,0.07220459,0.0625,-5.34375,14.875
679,1695727982906,0.33398438,-1.5762329,0.22698975,2.9375,-9.359375,-8.953125
680,1695727982945,-0.1953125,-1.2717896,-0.27520752,-13.59375,11.0625,-13.375
681,1695727982985,0.13867188,-1.0064087,-0.051086426,15.1875,-6.765625,4.796875
682,1695727983025,0.25268555,-0.7866821,0.039978027,4.859375,-10.484375,11.703125
683,1695727983066,0.064697266,-0.8882446,0.0038452148,8.8125,-4.09375,-0.9375
684,1695727983106,-0.0703125,-0.92926025,0.08734131,16.21875,-6.1875,-1.703125
685,1695727983147,-0.022216797,-0.74542236,-0.031066895,-9.46875,18.625,-13.546875
686,1695727983186,0.05908203,-0.66607666,-0.19976807,5.25,23.328125,-30.703125
687,1695727983227,0.0073242188,-0.8579712,-0.50177,-9.59375,-9.796875,-5.859375
688,1695727983269,0.28466797,-1.6514282,-0.061584473,34.0,-2.703125,3.140625
689,1695727983306,-0.36401367,-1.3931274,-0.097229004,-12.9375,1.015625,-2.875
690,1695727983349,-0.4633789,-0.93756104,-0.40875244,-9.828125,15.234375,-4.40625
691,1695727983386,-0.012451172,-0.9685669,-0.31622314,4.953125,15.859375,14.671875
692,1695727983428,-0.1027832,-1.0359497,-0.19537354,-12.875,9.875,-0.71875
693,1695727983467,-0.061279297,-1.0769653,-0.1494751,-6.578125,4.453125,-7.109375
694,1695727983508,-0.029296875,-0.8206177,-0.14581299,-18.296875,-6.921875,18.484375
695,1695727983546,-0.1159668,-0.67803955,-0.1428833,-14.546875,-9.515625,18.96875
696,1695727983589,-0.16357422,-0.80352783,-0.08477783,0.859375,4.53125,3.03125
697,1695727983627,-0.14111328,-0.77471924,-0.29644775,-21.921875,9.46875,10.203125
698,1695727983666,0.5656738,-0.9463501,-0.10015869,-8.5,-3.703125,12.71875
699,1695727983706,0.39868164,-1.411438,0.24554443,11.609375,-11.734375,-5.1875
700,1695727983749,-0.46313477,-1.2009888,-0.14385986,-25.234375,5.296875,0.625
701,1695727983787,0.10229492,-0.9714966,-0.11090088,11.125,-5.5,-4.421875
702,1695727983807,0.517334,-0.95635986,0.21087646,10.578125,-0.03125,10.296875
703,1695727983846,0.24047852,-1.020813,0.04925537,-3.75,-9.84375,1.09375
704,1695727983886,-0.13183594,-1.0095825,-0.022033691,9.609375,-9.90625,-16.046875
705,1695727983927,-0.22290039,-0.77008057,0.090270996,-4.4375,0.890625,-9.390625
706,1695727983967,-0.036132812,-0.58135986,0.026062012,-11.703125,11.375,-21.578125
707,1695727984007,-0.0014648438,-0.85601807,-0.08258057,17.359375,24.40625,-26.96875
708,1695727984045,0.064697266,-1.0523071,-0.222229,0.296875,-0.65625,-16.46875
709,1695727984086,0.42089844,-1.4199829,-0.18145752,18.046875,5.3125,-8.171875
710,1695727984126,-0.32470703,-1.2151489,-0.21417236,-1.625,-11.609375,-2.28125
711,1695727984166,-0.6035156,-1.1416626,-0.18927002,5.015625,-10.796875,-4.46875
712,1695727984206,-0.11352539,-1.177063,-0.027893066,3.765625,7.0625,17.84375
713,1695727984246,-0.037597656,-1.0435181,-0.07989502,-6.359375,12.703125,10.40625
714,1695727984285,-0.22558594,-0.9024048,-0.16265869,-5.828125,11.703125,-7.140625
715,1695727984327,-0.15234375,-0.7268677,-0.18096924,-11.65625,4.921875,0.96875
716,1695727984368,-0.045654297,-0.70977783,-0.1609497,-13.34375,1.953125,26.59375
717,1695727984407,0.030517578,-0.7905884,-0.04815674,-5.734375,-6.296875,17.953125
718,1695727984447,-0.22143555,-0.7637329,-0.11846924,-13.96875,-9.65625,8.1875
719,1695727984486,-0.123046875,-0.7498169,-0.19171143,8.046875,27.0,25.28125
720,1695727984527,0.6972656,-1.2761841,0.17132568,-18.828125,-13.140625,3.71875
721,1695727984566,0.12426758,-1.3770142,0.07513428,3.96875,-2.171875,-9.171875
722,1695727984605,-0.32055664,-1.1687622,-0.12554932,-11.625,1.765625,4.234375
723,1695727984645,0.06958008,-1.0569458,0.04486084,15.609375,-1.875,4.609375
724,1695727984685,0.21728516,-0.9973755,0.17547607,0.140625,2.671875,5.5
725,1695727984725,0.07739258,-1.0371704,0.1149292,9.265625,2.96875,-5.875
726,1695727984766,0.0063476562,-0.9024048,0.085876465,-7.21875,-3.828125,-14.453125
727,1695727984806,-0.064208984,-0.6880493,0.0006713867,-11.34375,9.671875,-13.03125
728,1695727984847,-0.07080078,-0.645813,0.06951904,1.78125,5.65625,-22.484375
729,1695727984885,-0.056396484,-0.84503174,-0.21612549,5.515625,0.28125,-21.46875
730,1695727984926,0.032714844,-1.3045044,-0.18951416,25.28125,0.96875,-7.09375
731,1695727984966,0.09863281,-1.6565552,-0.06060791,27.84375,3.59375,18.0625
732,1695727985014,-0.47753906,-1.1157837,-0.21759033,-8.90625,5.90625,-9.15625
733,1695727985046,-0.18530273,-0.95196533,-0.364563,0.578125,21.03125,-5.25
734,1695727985126,0.024658203,-0.8689575,-0.18609619,2.484375,-0.5,20.734375
735,1695727985129,-0.24658203,-0.954895,-0.12945557,4.859375,6.953125,-0.78125
736,1695727985147,-0.2199707,-0.87823486,-0.13140869,-7.734375,17.859375,-6.328125
737,1695727985229,0.055908203,-0.77960205,-0.04083252,1.625,8.15625,17.359375
738,1695727985232,0.0041503906,-0.7866821,-0.20147705,-15.109375,-4.859375,19.265625
739,1695727985266,-0.1003418,-0.97784424,-0.3423462,-8.71875,-11.734375,17.375
740,1695727985305,-0.14916992,-0.95269775,-0.24664307,-13.234375,-8.671875,17.546875
741,1695727985347,0.28930664,-1.1397095,0.12542725,6.390625,4.59375,14.296875
742,1695727985386,0.16748047,-1.3887329,0.21136475,-14.765625,5.6875,-13.609375
743,1695727985426,-0.20654297,-1.2078247,-0.08013916,-19.796875,45.078125,-0.0625
744,1695727985467,0.34326172,-0.9209595,-0.1921997,4.390625,6.859375,-14.0625
745,1695727985509,0.54052734,-0.77545166,0.06756592,12.703125,-12.890625,14.078125
746,1695727985547,0.095703125,-0.85650635,-0.041809082,0.859375,-12.109375,16.03125
747,1695727985589,-0.2084961,-1.0083618,-0.011291504,24.3125,1.640625,-9.171875
748,1695727985630,-0.13916016,-0.71417236,0.15985107,6.546875,12.921875,-2.03125
749,1695727985667,0.040039062,-0.76397705,-0.020080566,-11.921875,17.109375,-18.078125
750,1695727985707,0.171875,-0.94244385,0.11248779,2.71875,5.671875,-31.40625
751,1695727985749,-0.037841797,-1.0003052,-0.09991455,5.71875,6.40625,-15.609375
752,1695727985786,-0.024414062,-1.1177368,-0.41461182,-7.765625,-40.28125,9.3125
753,1695727985827,0.03100586,-1.4356079,0.042419434,33.828125,23.171875,9.671875
754,1695727985867,-0.4416504,-1.156311,-0.27886963,-11.296875,1.828125,-14.6875
755,1695727985908,-0.19140625,-1.1543579,-0.21026611,-2.078125,22.53125,-5.046875
756,1695727985947,0.11743164,-1.02594,-0.20318604,2.34375,0.703125,14.875
757,1695727985986,-0.087646484,-0.9492798,-0.19366455,-1.921875,2.796875,1.046875
758,1695727986027,-0.2993164,-0.8965454,-0.13360596,-5.265625,13.375,3.0
759,1695727986068,-0.10058594,-0.72247314,-0.1416626,-4.265625,-6.046875,19.890625
