# Sensor type: Respeck
# Activity type: Standing
# Activity subtype: Laughing
# Subject id: s1862623
# Notes: 
timestamp,accel_x,accel_y,accel_z,gyro_x,gyro_y,gyro_z
1695730271570,-0.39672852,-0.8753052,0.4743042,2.28125,-0.1875,0.21875
1695730271598,-0.37768555,-0.86920166,0.42840576,0.71875,-2.640625,1.1875
1695730271642,-0.36157227,-0.8677368,0.4569702,-0.78125,-1.71875,-1.640625
1695730271672,-0.41357422,-0.89727783,0.45794678,0.859375,2.515625,-0.09375
1695730271718,-0.3869629,-0.8562622,0.45013428,1.9375,2.625,1.34375
1695730271762,-0.39160156,-0.8706665,0.434021,2.734375,-1.390625,2.015625
1695730271792,-0.39257812,-0.847229,0.45819092,6.28125,-1.359375,2.09375
1695730271837,-0.40356445,-0.862854,0.38372803,21.03125,-20.78125,10.5
1695730271898,-0.37231445,-0.94073486,0.434021,7.515625,22.1875,6.984375
1695730271912,-0.51464844,-0.7888794,0.32073975,-32.078125,-9.359375,9.5
1695730271959,-0.1887207,-1.0708618,0.41351318,11.53125,35.4375,-16.390625
1695730271988,-0.30322266,-0.9307251,0.5507202,14.65625,9.390625,-5.59375
1695730272033,-0.48461914,-0.9036255,0.30926514,2.34375,16.625,-0.640625
1695730272079,-0.31567383,-0.8123169,0.34710693,-0.6875,-4.234375,6.625
1695730272111,-0.24584961,-0.894104,0.42108154,-1.890625,-4.234375,4.9375
1695730272154,-0.28710938,-0.99884033,0.43377686,11.0625,-10.453125,1.765625
1695730272213,-0.2866211,-0.8442993,0.19256592,14.59375,-17.34375,7.71875
1695730272228,-0.28442383,-0.9624634,0.41400146,30.78125,-36.15625,19.203125
1695730272273,-0.2631836,-0.9026489,0.3883667,4.234375,-43.890625,25.328125
1695730272318,-0.24609375,-1.0806274,0.10760498,8.234375,-25.71875,20.671875
1695730272347,-0.28515625,-1.0266724,0.3600464,41.03125,-18.15625,16.703125
1695730272393,-0.14160156,-0.7798462,0.45159912,9.46875,-50.546875,31.171875
1695730272425,-0.42016602,-0.89434814,0.08734131,-30.03125,-22.234375,22.171875
1695730272469,-0.28759766,-1.067688,0.2699585,22.90625,11.640625,13.25
1695730272514,-0.28759766,-1.1773071,0.35516357,21.96875,-4.515625,6.359375
1695730272544,-0.1940918,-0.96759033,0.18475342,-30.46875,-30.46875,1.703125
1695730272605,-0.2775879,-0.8284302,0.30462646,-25.25,3.78125,0.171875
1695730272665,-0.23291016,-0.927063,0.28753662,-7.1875,-3.1875,3.9375
1695730272679,-0.111816406,-1.1853638,0.3024292,26.65625,3.78125,-0.78125
1695730272708,-0.3425293,-1.0342407,0.30633545,-11.828125,-16.3125,-13.71875
1695730272739,-0.2993164,-0.79815674,0.18157959,-33.078125,-20.265625,-10.421875
1695730272785,-0.23046875,-0.9343872,0.27923584,-19.46875,11.890625,-2.953125
1695730272828,-0.1550293,-0.9536743,0.3463745,13.234375,4.53125,-2.484375
1695730272858,-0.07080078,-1.0618286,0.22503662,10.109375,-0.203125,-6.453125
1695730272905,-0.4099121,-0.93536377,0.31878662,3.609375,-14.875,-6.625
1695730272949,-0.47924805,-0.87091064,0.1317749,-11.25,1.96875,-1.203125
1695730272979,-0.1262207,-1.038147,0.33416748,12.375,25.71875,13.046875
1695730273026,-0.21069336,-1.0151978,0.4335327,-3.25,-4.890625,-13.546875
1695730273053,-0.24072266,-0.8064575,0.16668701,-1.25,-0.296875,-8.359375
1695730273099,-0.2836914,-0.97076416,0.31048584,6.8125,0.09375,-6.109375
1695730273144,-0.21557617,-1.0134888,0.2645874,2.4375,2.265625,-11.375
1695730273174,-0.32250977,-0.9180298,0.32855225,11.9375,-4.296875,-9.09375
1695730273219,-0.43408203,-0.94781494,0.24285889,-9.453125,3.703125,-2.75
1695730273264,-0.40014648,-0.9949341,0.33563232,6.640625,21.546875,-1.09375
1695730273293,-0.31323242,-0.90216064,0.3312378,-13.5625,14.34375,0.53125
1695730273339,-0.31811523,-0.9404907,0.33270264,-8.0,14.21875,1.890625
1695730273369,-0.33666992,-1.0505981,0.31170654,-7.921875,19.546875,-7.21875
1695730273414,-0.2524414,-0.880188,0.40667725,22.203125,4.171875,-9.625
1695730273459,-0.42651367,-0.8772583,0.30145264,-35.4375,-4.953125,-16.765625
1695730273489,-0.3540039,-0.91485596,0.3944702,-10.328125,10.453125,-4.515625
1695730273537,-0.3137207,-0.895813,0.35076904,-21.734375,9.453125,-11.96875
1695730273579,-0.35253906,-0.94732666,0.3937378,-4.734375,12.9375,-8.65625
1695730273610,-0.26538086,-0.92974854,0.3480835,-7.015625,21.40625,-10.34375
1695730273654,-0.29052734,-0.8562622,0.41351318,-2.71875,5.390625,-6.96875
1695730273683,-0.44604492,-0.86602783,0.32806396,-32.953125,5.0,-8.34375
1695730273728,-0.32299805,-0.8862915,0.45404053,13.40625,6.515625,3.0625
1695730273773,-0.26953125,-0.99346924,0.37615967,-5.984375,12.59375,-4.875
1695730273803,-0.27246094,-0.91534424,0.42059326,7.71875,-6.265625,-2.65625
1695730273849,-0.28149414,-0.86260986,0.3480835,-1.234375,-1.046875,3.828125
1695730273895,-0.2783203,-0.90826416,0.41937256,5.375,-6.796875,3.625
1695730273927,-0.37719727,-0.92022705,0.34661865,19.46875,-3.234375,6.515625
1695730273969,-0.3017578,-0.90411377,0.4376831,41.609375,14.453125,1.625
1695730274002,-0.34887695,-0.94537354,0.4220581,49.78125,-12.3125,9.359375
1695730274045,-0.30981445,-0.8154907,0.22747803,23.640625,-32.875,-1.21875
1695730274094,-0.5476074,-1.0215454,0.12225342,17.71875,-34.203125,11.203125
1695730274119,-0.35888672,-1.0427856,0.18060303,29.234375,-8.09375,17.71875
1695730274163,-0.13061523,-1.1279907,0.42889404,-2.34375,34.828125,15.09375
1695730274210,-0.3076172,-0.65997314,0.30706787,-52.6875,-16.984375,9.4375
1695730274255,-0.41601562,-0.9829712,0.2526245,-27.09375,4.484375,19.015625
1695730274288,-0.24365234,-1.1443481,0.20184326,17.703125,9.8125,0.96875
1695730274315,-0.39941406,-0.8081665,0.3444214,4.1875,-7.125,-24.15625
1695730274359,-0.27905273,-0.98883057,0.27337646,13.515625,-24.296875,-12.46875
1695730274406,-0.49414062,-0.90997314,0.26019287,-15.421875,-17.0625,1.40625
1695730274434,-0.39892578,-0.892395,0.2592163,-26.9375,17.171875,18.296875
1695730274480,-0.32739258,-0.9717407,0.25238037,1.625,16.03125,6.796875
1695730274529,-0.21411133,-1.0650024,0.35247803,14.0,7.046875,-2.140625
1695730274555,-0.33081055,-0.9089966,0.22283936,-4.796875,5.296875,2.40625
1695730274600,-0.29101562,-0.9014282,0.20355225,-5.140625,7.578125,11.203125
1695730274629,-0.32250977,-0.9500122,0.34857178,8.1875,9.734375,12.984375
1695730274674,-0.25097656,-1.0239868,0.25457764,-12.640625,19.1875,10.109375
1695730274720,-0.17700195,-1.0689087,0.3493042,20.46875,10.578125,7.453125
1695730274750,-0.37841797,-0.8882446,0.1954956,-14.6875,0.671875,4.796875
1695730274797,-0.02758789,-0.9783325,0.2982788,-3.578125,13.359375,19.28125
1695730274840,-0.04663086,-1.038147,0.45526123,16.21875,6.8125,5.09375
1695730274869,-0.16455078,-0.95440674,0.27069092,-14.921875,-12.4375,-3.515625
1695730274915,-0.15771484,-1.008606,0.19769287,10.09375,3.828125,-0.046875
1695730274945,-0.11010742,-0.9338989,0.307312,7.453125,-20.046875,-2.09375
1695730274989,-0.18554688,-0.9077759,0.3595581,-11.578125,-11.640625,6.953125
1695730275034,-0.14550781,-0.9402466,0.22943115,0.28125,0.484375,5.734375
1695730275064,-0.16088867,-1.0908813,0.29534912,3.671875,-0.71875,3.859375
1695730275110,-0.22070312,-1.0974731,0.2909546,8.375,-2.84375,-1.484375
1695730275155,-0.16235352,-0.84820557,0.24822998,16.78125,3.578125,1.953125
1695730275186,-0.15307617,-0.8887329,0.21624756,0.625,-2.90625,12.015625
1695730275229,0.09301758,-0.989563,0.30950928,6.8125,4.625,4.640625
1695730275260,-0.16088867,-1.1028442,0.27459717,40.6875,1.859375,5.703125
1695730275305,-0.27075195,-1.0632935,0.124938965,9.75,-4.0,5.953125
1695730275349,-0.039794922,-0.819397,0.11907959,8.78125,12.625,14.015625
1695730275379,0.0043945312,-1.0752563,0.36688232,1.328125,-11.328125,7.0
1695730275425,-0.140625,-1.0342407,0.073913574,-11.28125,-18.15625,1.015625
1695730275469,-0.21240234,-1.0322876,0.1798706,11.015625,1.046875,3.359375
1695730275499,-0.10571289,-1.1314087,0.19500732,-20.28125,4.28125,-3.15625
1695730275545,-0.03955078,-0.942688,0.21356201,-17.5625,3.90625,-5.65625
1695730275573,-0.021484375,-0.79473877,0.19110107,0.046875,-1.890625,-3.234375
1695730275619,-0.22460938,-0.9768677,0.17401123,1.6875,-1.734375,1.390625
1695730275665,-0.080566406,-1.0420532,0.1293335,27.3125,-0.90625,5.703125
1695730275695,-0.10229492,-1.0774536,0.2321167,-3.46875,-8.828125,10.59375
1695730275740,-0.08178711,-1.0029907,0.1696167,-13.046875,-6.84375,1.578125
1695730275785,-0.07470703,-0.9751587,0.16400146,-3.375,-4.71875,3.453125
1695730275814,-0.12109375,-0.9663696,0.089782715,-4.015625,2.109375,-3.234375
1695730275859,0.06738281,-1.0217896,0.17840576,21.6875,7.734375,-6.078125
1695730275905,-0.12036133,-1.0283813,0.246521,-12.890625,-24.125,-4.75
1695730275935,-0.24389648,-0.89678955,0.109558105,-26.03125,-5.796875,-1.375
1695730275980,-0.057373047,-1.0510864,0.13128662,-0.90625,24.109375,13.171875
1695730276010,-0.049316406,-1.1160278,0.4039917,9.6875,12.234375,-3.640625
1695730276055,-0.043945312,-0.9685669,0.07122803,11.78125,3.078125,-17.203125
1695730276099,-0.14746094,-0.96832275,0.14642334,-9.765625,-4.828125,-8.78125
1695730276145,-0.044433594,-0.90338135,0.309021,-3.1875,-4.703125,-0.890625
1695730276174,-0.203125,-1.0357056,0.09124756,-14.34375,-9.75,1.0
1695730276218,-0.15625,-1.039856,0.34051514,12.09375,9.265625,-1.546875
1695730276263,-0.22583008,-1.0476685,0.12347412,-8.921875,3.078125,-11.5
1695730276292,-0.10522461,-1.0344849,0.21722412,-10.296875,5.828125,-9.96875
1695730276324,-0.060791016,-0.8970337,0.32000732,-14.84375,-9.25,-17.546875
1695730276369,-0.32226562,-0.93048096,0.20062256,-10.734375,0.78125,-6.640625
1695730276415,-0.22753906,-1.039856,0.37908936,4.59375,6.984375,-6.953125
1695730276446,-0.30371094,-1.0967407,0.21063232,-29.375,4.609375,-22.40625
1695730276491,-0.1315918,-1.0449829,0.32781982,-13.03125,10.703125,-9.59375
1695730276534,-0.24365234,-0.9038696,0.31414795,-34.09375,11.578125,-23.4375
1695730276565,-0.32617188,-0.90045166,0.42547607,5.671875,15.625,-21.234375
1695730276610,-0.37451172,-0.70440674,0.4491577,-6.40625,32.078125,-29.25
1695730276639,-0.18945312,-1.0945435,0.5084839,42.390625,37.265625,-3.96875
1695730276685,-0.32421875,-0.9800415,0.13372803,-37.375,-15.59375,-20.703125
1695730276729,-0.36010742,-0.8274536,0.2501831,15.234375,11.21875,-21.5625
1695730276760,-0.24975586,-1.0325317,0.27947998,-9.46875,-14.640625,7.0
1695730276804,-0.2800293,-0.8623657,0.066589355,12.0,-5.71875,5.78125
1695730276881,-0.4650879,-0.8569946,0.5651245,-80.3125,3.09375,-8.265625
1695730276883,-0.39208984,-0.91192627,0.3632202,-21.984375,4.234375,10.5625
1695730276926,-0.30932617,-0.95513916,0.45111084,16.0625,11.734375,-12.9375
1695730276958,-0.3828125,-0.81329346,0.37908936,20.21875,-1.671875,-12.015625
1695730276999,-0.36865234,-0.944397,0.5194702,16.953125,3.53125,4.34375
1695730277044,-0.37109375,-0.83135986,0.37225342,-22.4375,-23.15625,-0.90625
1695730277077,-0.42407227,-0.8303833,0.41986084,3.34375,-14.703125,5.015625
1695730277120,-0.5004883,-0.95684814,0.34466553,-3.390625,12.421875,7.9375
1695730277165,-0.39135742,-0.95562744,0.4052124,9.0625,15.515625,-4.765625
1695730277195,-0.35302734,-0.861145,0.4039917,17.109375,3.65625,-7.421875
1695730277239,-0.37817383,-0.84161377,0.38909912,1.375,-7.046875,6.671875
1695730277269,-0.26123047,-0.87091064,0.3764038,-12.4375,0.796875,6.046875
1695730277315,-0.42626953,-0.9187622,0.4611206,13.328125,-15.265625,3.59375
1695730277359,-0.48291016,-0.90948486,0.31756592,8.109375,0.984375,0.734375
1695730277389,-0.39331055,-0.9085083,0.355896,16.59375,7.578125,4.734375
1695730277433,-0.515625,-0.927063,0.3751831,8.34375,-4.421875,-2.0625
1695730277482,-0.25585938,-0.92144775,0.27972412,-12.46875,-1.171875,1.328125
1695730277511,-0.3479004,-0.9031372,0.41864014,3.046875,-0.6875,9.265625
1695730277557,-0.5168457,-0.99176025,0.3102417,-8.546875,-7.484375,-6.765625
1695730277585,-0.3479004,-0.972229,0.33050537,11.015625,16.125,-0.703125
1695730277629,-0.3630371,-0.9055786,0.2880249,-1.765625,-5.71875,2.28125
1695730277676,-0.19506836,-0.9014282,0.37542725,-2.28125,9.5625,5.578125
1695730277704,-0.35229492,-0.8875122,0.38568115,-1.8125,-15.53125,5.984375
1695730277749,-0.49829102,-0.9307251,0.24603271,-3.765625,-4.46875,2.796875
1695730277795,-0.39013672,-0.97125244,0.34100342,9.75,13.0,10.375
1695730277824,-0.30541992,-0.99884033,0.30755615,-4.828125,2.53125,3.828125
1695730277870,-0.27001953,-0.8526001,0.3756714,-3.46875,-1.359375,4.53125
1695730277899,-0.32592773,-0.89141846,0.33685303,-4.953125,-7.171875,3.375
1695730277945,-0.3894043,-0.9973755,0.27630615,3.734375,4.546875,-2.734375
1695730277989,-0.30493164,-0.93341064,0.32562256,9.828125,2.984375,0.34375
1695730278019,-0.3461914,-0.9529419,0.23260498,-10.25,-0.1875,6.171875
1695730278065,-0.27001953,-0.9404907,0.41766357,15.140625,15.734375,11.640625
1695730278109,-0.34375,-0.90216064,0.34661865,-9.140625,-11.21875,-1.34375
1695730278139,-0.43188477,-0.9338989,0.26849365,-1.515625,5.0625,-8.234375
1695730278185,-0.28710938,-0.98443604,0.30755615,7.5,9.28125,-2.0625
1695730278214,-0.19189453,-0.97540283,0.29901123,-8.75,6.84375,3.734375
1695730278259,-0.22167969,-0.90802,0.36517334,6.234375,3.265625,0.25
1695730278305,-0.40112305,-0.88897705,0.29559326,-2.46875,-6.515625,0.0
1695730278334,-0.34179688,-0.96759033,0.28216553,5.796875,12.234375,0.484375
1695730278380,-0.34643555,-1.0115356,0.38616943,9.625,1.375,0.796875
1695730278425,-0.31445312,-0.86602783,0.24212646,-8.15625,16.0625,4.90625
1695730278454,-0.3137207,-0.85235596,0.40960693,16.203125,26.984375,21.25
1695730278499,-0.14477539,-1.0039673,0.22161865,-6.140625,17.140625,10.40625
1695730278530,-0.23828125,-0.9849243,0.2819214,16.375,1.015625,6.328125
1695730278574,-0.24414062,-1.0247192,0.2982788,-11.9375,-3.5625,8.953125
1695730278619,-0.15576172,-0.954895,0.35931396,10.546875,20.984375,7.0
1695730278648,-0.31079102,-0.9522095,0.27288818,-3.640625,-6.0625,5.421875
1695730278696,-0.2133789,-0.9619751,0.21600342,9.296875,2.546875,2.78125
1695730278739,-0.171875,-1.0847778,0.2531128,8.609375,3.6875,8.484375
1695730278768,-0.08520508,-1.0481567,0.27191162,-5.9375,4.484375,11.078125
1695730278830,-0.13720703,-0.8843384,0.27703857,6.140625,-9.8125,0.125
1695730278846,-0.26904297,-0.8748169,0.13104248,6.234375,-13.65625,5.828125
1695730278889,-0.18896484,-1.0093384,0.2999878,12.0,5.640625,14.9375
1695730278935,-0.06542969,-1.0911255,0.11663818,0.078125,-15.9375,6.1875
1695730278965,0.025146484,-0.94415283,0.4689331,19.984375,-14.421875,7.1875
1695730279009,-0.15820312,-0.94073486,-0.035705566,-1.6875,-34.640625,1.921875
1695730279054,-0.14941406,-1.0003052,0.30218506,17.84375,3.796875,22.53125
1695730279099,-0.12890625,-1.0176392,0.013122559,7.0625,-26.84375,7.46875
1695730279129,-0.039794922,-1.0256958,0.23529053,15.625,-7.328125,13.75
1695730279160,-0.103759766,-1.0115356,0.16253662,8.640625,-17.0,9.671875
1695730279205,-0.20239258,-0.94537354,0.11785889,6.71875,-16.65625,2.140625
1695730279250,-0.02319336,-0.9373169,0.0993042,12.234375,-2.515625,5.34375
1695730279280,-0.004638672,-1.0442505,0.097595215,4.609375,-15.078125,8.796875
1695730279325,-0.05102539,-1.0525513,0.22113037,9.671875,-20.375,4.640625
1695730279369,-0.13720703,-1.072815,0.074157715,-6.46875,-30.046875,-0.421875
1695730279400,-0.1809082,-1.0925903,0.18475342,-7.6875,-5.890625,4.46875
1695730279447,-0.072753906,-1.041565,0.1317749,-16.375,-9.078125,-6.640625
1695730279489,-0.15722656,-1.0610962,0.11883545,7.609375,2.796875,-8.359375
1695730279535,9.765625E-4,-0.91900635,0.078552246,-11.625,-3.015625,-5.265625
1695730279567,-9.765625E-4,-0.90753174,0.1408081,0.59375,-6.265625,1.34375
1695730279625,0.07104492,-0.9451294,0.15008545,-4.34375,-5.21875,12.171875
1695730279638,-0.11303711,-0.9487915,0.11468506,-0.703125,-16.46875,8.890625
1695730279684,-0.09692383,-0.99542236,0.03729248,1.296875,5.625,6.359375
1695730279714,-0.045654297,-0.9859009,0.2218628,12.5625,-11.9375,0.984375
1695730279760,-0.05419922,-1.0046997,0.12957764,-12.234375,5.96875,-2.71875
1695730279804,-0.10620117,-1.0669556,0.25750732,18.578125,2.328125,-14.703125
1695730279833,-0.24902344,-1.1226196,0.11395264,45.09375,16.375,-30.859375
1695730279880,-0.15698242,-1.1323853,0.0524292,-1.9375,4.375,-24.09375
1695730279909,-0.0871582,-1.102356,0.058776855,-57.046875,-4.359375,-22.078125
1695730279953,-0.21020508,-0.93096924,0.10491943,-57.125,7.484375,-36.25
1695730279999,-0.30639648,-0.97491455,-0.038391113,-4.75,-18.015625,-2.078125
1695730280028,-0.19458008,-1.1785278,0.08294678,20.953125,24.640625,15.640625
1695730280074,-0.32348633,-1.0234985,0.15179443,-43.640625,33.3125,16.859375
1695730280120,0.17333984,-0.6465454,0.35394287,-4.71875,19.109375,8.140625
1695730280149,-0.2175293,-0.9993286,0.20404053,-45.953125,8.53125,-12.609375
1695730280197,-0.22558594,-1.0403442,0.10101318,3.53125,28.0625,-17.484375
1695730280224,-0.21191406,-0.87335205,0.16937256,8.921875,13.8125,5.453125
1695730280269,-0.013427734,-0.9204712,0.27215576,-12.859375,20.671875,9.515625
1695730280314,-0.17211914,-0.927063,0.46331787,-0.59375,-13.0,1.75
1695730280345,-0.38305664,-1.0193481,0.16986084,-16.9375,28.171875,3.078125
1695730280390,-0.06347656,-1.0542603,0.338562,30.75,34.578125,1.171875
1695730280435,-0.13208008,-0.8723755,0.39007568,21.453125,12.390625,1.890625
1695730280465,-0.14331055,-0.9343872,0.14031982,-1.734375,14.03125,8.453125
1695730280509,0.080566406,-0.93218994,0.1473999,-7.375,13.1875,16.078125
1695730280539,-0.11425781,-1.0962524,0.41815186,14.40625,-9.703125,9.703125
1695730280585,-0.2199707,-1.085022,0.28094482,-15.6875,7.046875,7.390625
1695730280629,0.014892578,-0.9714966,0.39691162,4.703125,9.953125,6.296875
1695730280659,-0.03564453,-1.0493774,0.2921753,-1.578125,5.546875,-3.84375
1695730280704,-0.015136719,-0.9522095,0.27581787,12.703125,2.390625,-0.3125
1695730280748,-0.08178711,-0.96221924,0.19671631,-1.953125,-2.734375,6.1875
1695730280778,-0.057373047,-1.0022583,0.33270264,-8.34375,-7.046875,8.40625
1695730280823,0.05444336,-1.0076294,0.39422607,2.796875,-6.265625,4.03125
1695730280854,-0.14868164,-0.9277954,0.32611084,-4.546875,-9.671875,-1.0625
1695730280899,0.0063476562,-1.1035767,0.2592163,-0.546875,5.703125,-4.28125
1695730280945,-0.084472656,-0.98028564,0.28778076,2.421875,-6.140625,-9.15625
1695730280975,0.0234375,-1.0230103,0.36883545,-24.40625,-10.203125,-6.546875
1695730281019,-0.1159668,-0.83843994,0.36688232,-3.46875,-12.21875,-5.5625
1695730281065,-0.18041992,-0.89556885,0.28240967,-11.53125,-1.125,-3.953125
1695730281095,-0.06518555,-1.0300903,0.4616089,11.578125,2.984375,-1.8125
1695730281140,-0.032470703,-1.1504517,0.3390503,-16.765625,-10.234375,-17.5
1695730281171,0.0625,-1.0471802,0.27215576,6.796875,-8.484375,-10.9375
1695730281214,-0.08959961,-0.8218384,0.4467163,-4.59375,-27.5,-9.03125
1695730281259,-0.31860352,-0.8032837,0.23358154,-21.109375,-28.171875,-3.53125
1695730281289,-0.22460938,-1.1914673,0.35662842,19.875,17.0,4.375
1695730281335,-0.22875977,-1.0098267,0.3781128,-27.484375,-12.328125,-10.515625
1695730281379,-0.18554688,-0.8401489,0.26605225,-4.734375,7.90625,-7.4375
1695730281408,-0.17895508,-0.9158325,0.46673584,12.703125,7.9375,7.046875
1695730281454,-0.28076172,-0.80792236,0.25701904,-5.03125,5.84375,1.109375
1695730281486,-0.1706543,-1.0081177,0.45013428,16.84375,27.828125,-3.34375
1695730281529,-0.21972656,-1.1331177,0.40350342,-30.90625,-6.390625,-13.171875
1695730281575,-0.13793945,-0.9299927,0.4557495,-26.640625,17.734375,-18.296875
1695730281605,-0.27954102,-0.79229736,0.3991089,-8.203125,-1.421875,-9.203125
1695730281649,-0.24243164,-0.9338989,0.21087646,-2.109375,26.921875,-16.5
1695730281694,-0.0690918,-0.96832275,0.57147217,6.9375,5.71875,-9.984375
1695730281728,-0.2932129,-0.8855591,0.4196167,-38.875,-13.921875,-10.359375
1695730281770,-0.40844727,-0.9277954,0.46551514,-0.84375,13.375,-6.25
1695730281800,-0.30249023,-0.9324341,0.55096436,-24.453125,13.421875,-15.703125
1695730281846,-0.21020508,-0.77960205,0.5270386,15.890625,8.234375,-8.296875
1695730281890,-0.24584961,-0.9175415,0.49041748,34.6875,41.359375,-11.28125
1695730281920,-0.28808594,-1.0056763,0.40130615,8.1875,19.984375,-6.03125
1695730281968,-0.2668457,-0.89263916,0.35931396,10.125,8.359375,-11.484375
1695730282011,-0.16308594,-0.92437744,0.3829956,6.546875,14.234375,-12.546875
1695730282040,-0.37573242,-0.9158325,0.3847046,7.25,25.125,-4.953125
1695730282087,-0.24951172,-0.9229126,0.3710327,15.46875,0.0625,3.78125
1695730282114,-0.26489258,-1.0310669,0.08343506,16.796875,-55.46875,12.328125
1695730282159,-0.1274414,-0.8657837,0.7255249,-21.5,12.15625,9.6875
1695730282204,-0.3474121,-0.8855591,0.37469482,-37.671875,-28.125,3.984375
1695730282234,-0.39941406,-1.0552368,0.51239014,21.203125,11.765625,-10.875
1695730282280,-0.31079102,-0.8323364,0.30633545,24.171875,10.78125,-7.71875
1695730282326,-0.32470703,-0.89508057,0.33807373,-1.484375,-17.359375,9.859375
1695730282355,-0.27856445,-0.95098877,0.5700073,10.578125,1.703125,0.9375
1695730282399,-0.28857422,-0.960022,0.48114014,-42.546875,-26.640625,5.015625
1695730282429,-0.44702148,-0.8550415,0.32757568,10.546875,23.828125,4.859375
1695730282475,-0.27978516,-0.9500122,0.65448,27.75,-0.84375,14.703125
1695730282525,-0.32592773,-0.8743286,0.33294678,-19.78125,-8.875,3.875
1695730282551,-0.26708984,-1.0903931,0.416687,30.515625,22.09375,-2.890625
1695730282596,-0.37890625,-0.9356079,0.4784546,-10.828125,-6.421875,-6.75
1695730282640,-0.37719727,-0.83428955,0.32025146,-19.15625,5.859375,-13.03125
1695730282669,-0.2175293,-0.9627075,0.3554077,2.0,31.09375,-16.265625
1695730282716,-0.18969727,-0.9763794,0.4130249,3.0,-0.734375,-12.140625
1695730282743,-0.34521484,-0.90875244,0.3973999,25.28125,-0.21875,3.703125
1695730282789,-0.4753418,-0.8255005,0.4328003,1.953125,3.28125,11.09375
1695730282834,-0.28100586,-0.8545532,0.29632568,8.015625,20.03125,1.96875
1695730282864,-0.17871094,-1.1314087,0.4364624,28.546875,22.03125,-3.296875
1695730282909,-0.27001953,-1.0083618,0.371521,-12.796875,-16.265625,-6.328125
1695730282954,-0.27661133,-0.78790283,0.23480225,0.75,-4.234375,-9.609375
1695730282984,-0.41186523,-0.9038696,0.5321655,-2.671875,-7.0,-7.890625
1695730283029,-0.25805664,-0.9517212,0.23309326,-10.484375,1.875,-4.046875
1695730283059,-0.19116211,-1.0320435,0.4376831,20.015625,17.328125,-1.6875
1695730283104,-0.36938477,-0.9656372,0.3781128,-7.265625,-13.9375,-4.1875
1695730283149,-0.29296875,-0.9092407,0.29534912,-6.203125,-0.59375,0.609375
1695730283180,-0.3095703,-0.8508911,0.43499756,-2.484375,-3.203125,8.390625
1695730283226,-0.38623047,-0.9517212,0.4335327,-2.234375,-3.125,9.25
1695730283269,-0.29785156,-0.9624634,0.30706787,4.203125,10.328125,5.828125
1695730283300,-0.27441406,-0.9981079,0.45159912,11.609375,-8.359375,0.109375
1695730283345,-0.40893555,-0.92803955,0.28167725,-14.46875,0.796875,2.890625
1695730283389,-0.17919922,-0.9072876,0.4352417,11.21875,2.640625,0.46875
1695730283420,-0.4128418,-0.89508057,0.30926514,-6.34375,-7.109375,-0.765625
1695730283465,-0.34057617,-0.9011841,0.33026123,13.84375,13.5,6.140625
1695730283492,-0.21923828,-1.0496216,0.39398193,6.703125,1.625,1.953125
1695730283538,-0.2866211,-0.9590454,0.27825928,-0.65625,3.78125,-2.75
1695730283584,-0.30615234,-0.8882446,0.3834839,-13.828125,1.015625,-2.328125
1695730283615,-0.32958984,-0.83843994,0.38153076,7.40625,5.375,4.0
1695730283660,-0.3334961,-0.9417114,0.23016357,-3.6875,12.90625,-1.296875
1695730283705,-0.27075195,-1.0095825,0.47381592,15.59375,1.59375,3.84375
1695730283735,-0.28759766,-0.94732666,0.21820068,-19.6875,9.375,-1.734375
1695730283779,-0.27294922,-0.9151001,0.47039795,19.328125,7.640625,4.21875
1695730283809,-0.3395996,-0.95806885,0.24407959,-21.046875,3.0625,-0.71875
1695730283854,-0.24682617,-0.94317627,0.3522339,27.8125,15.640625,1.453125
1695730283899,-0.24389648,-0.9702759,0.3114624,-6.421875,1.875,-3.21875
1695730283929,-0.296875,-0.94317627,0.2946167,8.15625,5.75,2.84375
1695730283977,-0.25219727,-0.9483032,0.3925171,7.609375,0.875,0.28125
1695730284021,-0.31567383,-0.9524536,0.24603271,-3.28125,3.15625,3.0625
1695730284050,-0.24389648,-0.9260864,0.36590576,8.328125,-0.125,5.359375
1695730284096,-0.29589844,-0.9939575,0.30438232,0.734375,-2.03125,2.75
1695730284125,-0.2512207,-0.956604,0.31414795,10.1875,2.40625,4.765625
1695730284168,-0.18530273,-1.0005493,0.3078003,2.09375,-4.15625,0.3125
1695730284215,-0.20166016,-1.0015259,0.24090576,-1.59375,-4.296875,-0.765625
1695730284246,-0.15356445,-0.91607666,0.30926514,1.234375,-17.34375,-3.859375
1695730284289,-0.28979492,-0.9385376,0.30926514,-5.375,-14.265625,-3.203125
1695730284337,-0.2668457,-0.9468384,0.33319092,4.796875,-13.6875,5.25
1695730284367,-0.4033203,-0.9487915,0.3366089,-11.75,-12.546875,-8.015625
1695730284408,-0.36083984,-0.96954346,0.3361206,6.6875,-4.96875,-8.265625
1695730284438,-0.21948242,-0.96343994,0.28338623,-22.75,4.578125,-5.15625
1695730284485,-0.26586914,-0.95196533,0.2946167,-2.078125,-8.015625,-0.109375
1695730284529,-0.3779297,-1.0037231,0.21868896,-3.53125,-19.421875,3.28125
1695730284560,-0.31713867,-1.055481,0.22113037,10.859375,-7.53125,11.796875
1695730284604,-0.29248047,-1.055481,0.26727295,-23.796875,30.140625,8.40625
1695730284650,-0.0146484375,-0.7022095,0.4088745,-17.0625,4.984375,4.40625
1695730284679,-0.38208008,-0.8936157,0.40423584,1.625,-12.296875,6.09375
1695730284725,-0.2524414,-1.0281372,0.26971436,-16.21875,27.34375,3.125
1695730284754,-0.109375,-0.8960571,0.33172607,14.703125,-0.25,-10.1875
1695730284800,-0.29711914,-0.87677,0.3529663,-4.15625,-9.5,-0.9375
1695730284842,-0.17871094,-1.0432739,0.3463745,5.1875,15.84375,10.15625
1695730284873,-0.14160156,-0.96417236,0.3673706,22.609375,6.390625,-6.859375
1695730284920,-0.28857422,-1.006897,0.3012085,13.59375,8.0,1.203125
1695730284967,-0.29663086,-1.0344849,0.31976318,1.828125,-7.078125,10.0625
1695730284994,-0.12915039,-0.8777466,0.30999756,-17.671875,-7.765625,1.453125
1695730285039,-0.2397461,-0.8838501,0.17376709,7.484375,-2.375,1.03125
1695730285071,-0.19116211,-1.0252075,0.22479248,17.640625,8.65625,7.765625
1695730285118,-0.0053710938,-1.0005493,0.30413818,43.359375,-8.875,9.75
1695730285159,-0.38305664,-0.96661377,0.20721436,-14.703125,-45.453125,5.40625
1695730285188,-0.27124023,-1.0151978,0.27703857,3.296875,3.6875,17.0
1695730285233,-0.2734375,-0.95440674,0.26971436,-2.109375,-12.75,8.875
1695730285280,-0.23828125,-0.9805298,0.13006592,11.21875,9.640625,6.015625
1695730285309,-0.095214844,-1.0283813,0.12860107,22.953125,9.875,6.078125
1695730285358,-0.13696289,-1.0095825,0.22064209,1.765625,-11.1875,4.453125
1695730285384,-0.12133789,-0.9795532,0.18988037,-2.078125,-23.015625,3.734375
1695730285431,-0.2626953,-0.94488525,0.19696045,-11.359375,-19.203125,7.890625
1695730285476,-0.18725586,-1.0325317,0.21185303,-4.171875,5.40625,11.8125
1695730285506,-0.11767578,-1.1089478,0.12371826,4.625,-2.8125,-3.859375
1695730285548,-0.1352539,-1.050354,0.25164795,7.1875,-4.375,3.640625
1695730285595,-0.084228516,-0.88287354,0.15472412,-12.203125,-13.9375,0.171875
1695730285624,-0.24316406,-0.8792114,0.12420654,-6.1875,-14.390625,-6.046875
1695730285669,-0.067871094,-1.0427856,0.24261475,6.921875,12.171875,11.9375
1695730285698,-0.119628906,-1.1116333,0.15814209,-7.609375,-13.5,0.234375
1695730285744,-0.25195312,-1.0527954,0.20648193,3.484375,-7.84375,-2.71875
1695730285789,-0.13354492,-0.9998169,0.2584839,-17.890625,-11.75,7.296875
1695730285818,-0.15161133,-0.83306885,0.17010498,-16.40625,-2.828125,-3.828125
1695730285865,-0.21508789,-0.9624634,0.24066162,2.3125,0.796875,6.296875
1695730285910,-0.111816406,-1.0689087,0.33709717,-5.734375,-2.234375,0.078125
1695730285940,-0.16674805,-1.0547485,0.262146,-9.984375,-12.171875,-18.078125
1695730285986,-0.27612305,-1.006897,0.2538452,17.75,12.015625,-25.40625
1695730286014,-0.37280273,-1.0120239,0.2411499,-18.875,13.34375,-18.921875
1695730286058,-0.22973633,-0.9121704,0.17547607,-17.921875,17.703125,-10.796875
1695730286120,-0.22680664,-1.0547485,0.3143921,-19.234375,5.59375,-15.46875
1695730286134,-0.31103516,-1.0015259,0.3024292,-22.5,-8.203125,-18.609375
1695730286179,-0.23291016,-0.9636841,0.27923584,-10.125,12.859375,-12.078125
1695730286226,-0.18139648,-0.9031372,0.2086792,-1.609375,-11.84375,8.140625
1695730286255,-0.19091797,-0.909729,0.32781982,-44.140625,45.421875,-2.625
1695730286301,0.0949707,-0.78302,0.54193115,-25.53125,-9.03125,6.859375
1695730286327,-0.421875,-1.0342407,0.4537964,-3.953125,-5.375,-3.421875
1695730286374,-0.44311523,-0.85040283,0.39031982,31.734375,24.46875,-10.5625
1695730286420,-0.12548828,-0.86798096,0.3973999,-9.890625,20.859375,11.421875
1695730286449,-0.1628418,-1.1016235,0.48382568,-15.09375,6.515625,4.15625
1695730286495,-0.16455078,-0.77301025,0.46209717,-13.125,4.03125,-10.1875
1695730286540,-0.3149414,-0.8023071,0.4022827,-8.703125,-10.46875,2.3125
1695730286569,-0.17529297,-0.9998169,0.50335693,4.25,22.21875,-11.515625
1695730286615,-0.24536133,-0.8887329,0.48675537,1.578125,-6.5625,4.6875
1695730286644,-0.27563477,-0.94732666,0.37615967,-23.90625,9.546875,-3.765625
1695730286689,-0.23071289,-0.9258423,0.637146,20.921875,-6.90625,-0.484375
1695730286734,-0.24291992,-0.79351807,0.3427124,-18.40625,0.140625,1.140625
1695730286765,-0.14111328,-0.9570923,0.41033936,25.34375,14.65625,3.546875
1695730286810,-0.16186523,-0.9729614,0.5302124,4.65625,-7.265625,3.90625
1695730286855,-0.28027344,-0.82891846,0.4779663,-0.375,-12.578125,-2.0625
1695730286886,-0.4128418,-0.9558716,0.52264404,-4.625,5.953125,2.875
1695730286929,-0.26391602,-1.0545044,0.49188232,-6.296875,16.625,-5.578125
1695730286975,-0.24316406,-0.866272,0.3624878,11.15625,8.65625,-13.046875
1695730287009,-0.25805664,-0.8609009,0.39520264,-20.34375,-5.5625,-8.8125
1695730287049,-0.13305664,-1.0012817,0.36053467,-7.578125,12.015625,-7.546875
1695730287079,-0.25585938,-0.8447876,0.52752686,14.765625,-5.75,8.625
1695730287127,-0.34545898,-0.8362427,0.449646,1.375,-3.59375,16.703125
1695730287172,-0.28857422,-0.98394775,0.38226318,17.59375,3.90625,2.4375
1695730287200,-0.29077148,-0.94659424,0.5392456,4.75,-4.09375,4.140625
1695730287245,-0.24169922,-0.89556885,0.3283081,-10.40625,-2.78125,-1.09375
1695730287290,-0.19848633,-0.8809204,0.46429443,8.234375,-1.390625,-5.09375
1695730287320,-0.37841797,-0.8748169,0.4911499,-10.203125,-11.1875,-5.375
1695730287364,-0.36108398,-0.9209595,0.35614014,10.875,8.671875,-1.65625
1695730287395,-0.22851562,-1.0032349,0.526062,4.234375,3.203125,-11.96875
1695730287441,-0.28076172,-0.8599243,0.41571045,-17.8125,-7.640625,-13.109375
1695730287486,-0.3100586,-0.87506104,0.5775757,7.25,-1.859375,-4.390625
1695730287515,-0.43139648,-0.7991333,0.5092163,-3.484375,-3.890625,-6.765625
1695730287559,-0.38598633,-0.8928833,0.480896,-8.1875,16.59375,-15.796875
1695730287606,-0.2956543,-0.9800415,0.4647827,21.90625,8.625,-15.0
1695730287636,-0.33740234,-0.91656494,0.4064331,-5.8125,-2.953125,-8.921875
1695730287680,-0.3371582,-0.89801025,0.34588623,-0.71875,-4.625,-4.4375
1695730287709,-0.37573242,-0.99664307,0.34783936,4.359375,-5.15625,0.625
1695730287766,-0.2290039,-0.9331665,0.2321167,-18.078125,2.765625,2.0625
1695730287799,-0.41723633,-0.8447876,0.62542725,-41.734375,26.671875,-3.71875
1695730287829,-0.09448242,-0.741272,0.35125732,-20.84375,-5.703125,2.78125
1695730287874,-0.27807617,-0.8538208,0.61590576,-3.875,-11.078125,2.671875
1695730287950,-0.36010742,-0.84454346,0.57489014,15.015625,-8.625,8.046875
1695730287952,-0.5270996,-0.9175415,0.46209717,17.4375,-4.78125,5.609375
1695730287994,-0.45654297,-0.86505127,0.49163818,4.828125,-3.296875,7.734375
1695730288025,-0.35913086,-0.91485596,0.557312,-14.875,1.046875,8.953125
1695730288069,-0.29467773,-0.8845825,0.48187256,-2.75,-2.296875,6.953125
1695730288129,-0.45922852,-0.82647705,0.51727295,-8.203125,9.34375,-0.140625
1695730288144,-0.21411133,-0.79644775,0.31463623,2.625,9.96875,-3.9375
1695730288189,-0.19311523,-0.9741821,0.62957764,11.609375,4.046875,3.734375
1695730288234,-0.24267578,-0.85601807,0.47625732,-0.671875,-11.40625,-2.21875
1695730288280,-0.52246094,-0.8245239,0.49383545,-4.46875,-8.203125,-5.046875
1695730288310,-0.31201172,-0.8814087,0.5404663,17.71875,14.75,-0.734375
1695730288340,-0.27807617,-1.0425415,0.496521,2.015625,-4.9375,-2.078125
1695730288385,-0.3112793,-0.81256104,0.46868896,13.375,1.953125,4.484375
1695730288429,-0.22875977,-0.8526001,0.40447998,13.1875,-0.71875,8.8125
1695730288460,-0.2709961,-0.91412354,0.43670654,1.75,-10.765625,10.625
1695730288505,-0.23217773,-0.9663696,0.4467163,12.546875,-5.328125,5.0625
1695730288549,-0.3173828,-0.9800415,0.39764404,12.484375,-16.0,9.625
1695730288579,-0.3762207,-0.8699341,0.30633545,0.9375,-16.109375,8.40625
1695730288625,-0.31274414,-0.90753174,0.39471436,2.1875,-17.578125,2.25
1695730288655,-0.49169922,-0.89019775,0.34857178,7.21875,-5.140625,8.71875
1695730288699,-0.31420898,-1.0288696,0.22381592,-2.796875,-3.171875,6.765625
1695730288745,-0.22827148,-1.0569458,0.3751831,11.84375,-13.34375,-1.90625
1695730288776,-0.23510742,-0.98443604,0.43792725,-2.625,-21.46875,2.46875
1695730288820,-0.40234375,-0.894104,0.2243042,-16.265625,-22.71875,-2.65625
1695730288865,-0.4423828,-0.7944946,0.25042725,2.328125,-13.921875,-0.09375
1695730288895,-0.42138672,-0.8916626,0.26116943,-12.734375,-17.84375,4.640625
1695730288939,-0.30249023,-1.0542603,0.39154053,-2.046875,-9.296875,7.75
1695730288968,-0.30493164,-0.9678345,0.38812256,-28.875,-24.375,-1.359375
1695730289014,-0.52368164,-0.8777466,0.27288818,-22.9375,-17.96875,1.09375
1695730289059,-0.44213867,-0.9138794,0.33148193,-11.578125,-5.15625,-1.890625
1695730289089,-0.23291016,-0.9612427,0.43182373,-7.078125,-4.953125,0.15625
1695730289134,-0.27539062,-0.94659424,0.44378662,-25.34375,-9.734375,3.40625
1695730289179,-0.3930664,-0.8530884,0.41156006,-19.359375,-10.1875,0.734375
1695730289209,-0.40454102,-0.8220825,0.46258545,-6.609375,4.09375,4.71875
1695730289256,-0.2841797,-0.90631104,0.5248413,-4.703125,7.90625,10.984375
1695730289286,-0.18481445,-0.8858032,0.5548706,-0.765625,1.828125,8.34375
1695730289329,-0.38916016,-0.85894775,0.5048218,-15.484375,-5.921875,-0.25
1695730289375,-0.3232422,-0.9077759,0.510437,6.40625,11.5,-3.09375
1695730289405,-0.33764648,-0.84552,0.6317749,-8.828125,-13.1875,-0.953125
1695730289451,-0.31396484,-0.8220825,0.49969482,-9.15625,3.78125,-0.90625
1695730289495,-0.3112793,-0.7944946,0.5192261,-17.8125,3.0,4.4375
1695730289525,-0.32373047,-0.8447876,0.5536499,-13.78125,1.53125,-0.1875
1695730289569,-0.30004883,-0.8496704,0.60687256,-5.421875,5.859375,-3.921875
1695730289598,-0.35498047,-0.82354736,0.7272339,6.40625,12.359375,-0.34375
1695730289643,-0.45751953,-0.86798096,0.5651245,3.515625,13.5,-0.546875
1695730289689,-0.2932129,-0.77960205,0.48724365,31.34375,48.625,1.546875
1695730289719,-0.20092773,-0.88067627,0.4887085,15.25,25.84375,6.90625
1695730289765,-0.13452148,-0.8184204,0.49993896,10.0,23.453125,0.03125
1695730289809,-0.28637695,-1.0425415,0.5429077,2.65625,-9.65625,15.21875
1695730289854,-0.13256836,-0.9146118,0.29656982,-6.515625,-16.78125,2.328125
1695730289888,-0.25732422,-0.8010864,0.75164795,-15.96875,-17.921875,1.765625
1695730289914,-0.26098633,-0.8225708,0.53533936,-36.75,-28.71875,-12.359375
1695730289974,-0.44189453,-0.9299927,0.7091675,12.03125,8.09375,-6.71875
1695730290006,-0.30517578,-0.7268677,0.52752686,18.0625,16.03125,-4.59375
1695730290036,-0.26489258,-0.8189087,0.55877686,16.921875,18.5,11.109375
1695730290080,-0.21484375,-0.8916626,0.6845093,-6.84375,-9.734375,-7.375
1695730290128,-0.26904297,-0.7263794,0.5441284,-25.0625,-23.625,-0.703125
1695730290157,-0.32788086,-0.8814087,0.46697998,-8.390625,-8.125,3.125
1695730290200,-0.24780273,-0.91534424,0.64715576,-0.046875,8.03125,0.21875
1695730290229,-0.38720703,-0.8718872,0.6347046,12.03125,-1.828125,7.5
1695730290274,-0.28100586,-0.8406372,0.4537964,-12.59375,1.453125,0.109375
1695730290334,-0.16845703,-0.8081665,0.68670654,22.640625,13.125,5.015625
1695730290350,-0.29174805,-0.88287354,0.51312256,-21.984375,-13.921875,2.078125
1695730290394,-0.31103516,-0.93927,0.543396,7.125,8.453125,-4.6875
1695730290439,-0.2614746,-0.8167114,0.5668335,14.921875,7.78125,-6.046875
1695730290469,-0.14331055,-0.89971924,0.49334717,-16.546875,4.421875,3.703125
1695730290515,-0.2980957,-0.84869385,0.5831909,4.484375,1.234375,0.859375
1695730290560,-0.2512207,-0.86920166,0.5836792,-18.0625,-2.515625,-4.921875
1695730290589,-0.41137695,-0.8220825,0.526062,9.65625,-4.03125,-5.671875
1695730290635,-0.33544922,-0.8604126,0.57855225,19.953125,15.671875,1.359375
1695730290665,-0.19116211,-0.85113525,0.5726929,34.859375,18.203125,16.96875
1695730290710,-0.11694336,-0.9414673,0.55926514,18.828125,1.671875,10.125
1695730290755,-0.2746582,-0.8584595,0.39422607,3.578125,-6.328125,5.40625
1695730290785,-0.27807617,-0.9434204,0.42132568,7.6875,13.625,7.703125
1695730290829,-0.19677734,-1.0200806,0.48382568,2.6875,-3.609375,6.40625
1695730290875,-0.18969727,-0.9146118,0.3912964,-5.484375,-0.21875,-1.359375
1695730290905,-0.15820312,-0.9229126,0.5343628,-3.640625,8.703125,-6.515625
1695730290949,-0.21948242,-0.91973877,0.44940186,9.453125,-0.75,-1.078125
1695730290995,-0.21142578,-0.8989868,0.38201904,8.546875,3.09375,-3.609375
1695730291026,-0.28979492,-0.89678955,0.480896,11.71875,-14.234375,1.9375
1695730291069,-0.27246094,-0.90582275,0.401062,11.65625,9.1875,10.71875
1695730291099,-0.1550293,-1.0444946,0.5626831,16.796875,3.0625,20.890625
1695730291145,-0.30078125,-0.9102173,0.38250732,-3.03125,-11.03125,14.75
1695730291190,-0.17016602,-0.87091064,0.3439331,19.109375,0.15625,2.5
1695730291219,-0.09667969,-1.0689087,0.402771,0.59375,5.390625,-3.484375
1695730291265,-0.052001953,-0.9932251,0.36297607,-12.125,-5.78125,1.78125
1695730291340,-0.17407227,-0.97540283,0.35150146,-27.859375,-6.53125,-7.8125
1695730291343,-0.22802734,-0.8850708,0.46697998,5.25,-0.515625,-6.15625
1695730291385,-0.25024414,-0.89727783,0.3517456,-11.40625,0.59375,2.0
1695730291416,-0.15893555,-1.0195923,0.46697998,15.453125,14.03125,-2.6875
1695730291459,-0.234375,-0.93341064,0.3781128,-18.265625,-0.4375,-4.828125
1695730291505,-0.15917969,-0.8870239,0.40716553,-4.453125,7.84375,-0.71875
1695730291535,-0.14526367,-0.8845825,0.39593506,-0.421875,7.25,-3.375
1695730291579,-0.20410156,-0.9299927,0.50286865,14.484375,0.296875,4.703125
1695730291609,-0.13745117,-0.9607544,0.41448975,11.3125,2.921875,7.625
1695730291654,-0.30371094,-0.9812622,0.3842163,3.828125,-6.390625,3.40625
1695730291700,-0.22338867,-0.9636841,0.4100952,8.546875,10.5,5.8125
1695730291729,-0.16137695,-0.9439087,0.385437,-3.203125,-0.578125,4.6875
1695730291775,-0.115722656,-0.9644165,0.3475952,-10.484375,4.421875,1.140625
1695730291819,-0.12426758,-0.9500122,0.39227295,7.421875,4.609375,-2.984375
1695730291849,-0.13696289,-0.95977783,0.4081421,6.6875,-3.84375,-1.71875
1695730291894,-0.13500977,-0.9373169,0.3908081,9.703125,4.625,-1.765625
1695730291925,-0.27075195,-1.0100708,0.45794678,9.734375,-24.640625,3.4375
1695730291969,-0.2109375,-0.9944458,0.28070068,-2.5625,11.28125,3.875
1695730292014,-0.2512207,-1.0210571,0.50531006,1.171875,-6.5,2.6875
1695730292044,-0.3642578,-0.9680786,0.36224365,-17.21875,-8.46875,-10.75
1695730292089,-0.18188477,-0.9043579,0.3624878,5.234375,8.28125,-9.921875
1695730292134,-0.28442383,-0.9680786,0.4491577,5.484375,2.234375,-12.75
1695730292168,-0.28564453,-0.9783325,0.36419678,6.546875,18.734375,-17.140625
1695730292210,-0.1730957,-0.9038696,0.3361206,1.625,19.640625,-11.6875
1695730292239,-0.25756836,-1.0071411,0.35247803,-2.453125,25.9375,-18.8125
1695730292284,-0.32861328,-0.98516846,0.2970581,-6.53125,19.5,-18.8125
1695730292331,-0.21020508,-0.92437744,0.28070068,-7.515625,5.828125,-15.984375
1695730292359,-0.16699219,-1.0996704,0.010925293,-21.203125,10.375,-8.0625
1695730292419,-0.0056152344,-0.6836548,0.54022217,-15.96875,-0.453125,2.5625
1695730292450,-0.15356445,-0.6939087,0.36273193,-33.71875,-28.0,9.0
1695730292479,-0.5004883,-1.098938,0.5519409,9.4375,-10.4375,3.015625
1695730292524,-0.26391602,-0.8526001,0.3678589,5.25,-4.015625,5.765625
1695730292555,-0.23120117,-0.93707275,0.37078857,19.484375,8.3125,10.5
1695730292599,-0.17822266,-1.010315,0.4874878,31.375,-2.078125,10.171875
1695730292643,-0.36083984,-0.86920166,0.45477295,10.046875,-13.015625,11.6875
1695730292673,-0.3244629,-0.9365845,0.20574951,-8.859375,4.90625,11.140625
1695730292720,-0.22338867,-0.98321533,0.37493896,11.703125,21.25,8.53125
1695730292765,-0.03955078,-0.92071533,0.42913818,29.15625,-1.234375,22.09375
1695730292796,-0.042236328,-1.0081177,0.34735107,-1.515625,-6.71875,25.34375
1695730292838,-0.25854492,-0.88653564,0.2819214,9.25,-12.015625,17.390625
1695730292871,-0.2607422,-0.87506104,0.31488037,13.265625,-17.40625,6.953125
1695730292916,-0.21044922,-1.0256958,0.3612671,3.859375,2.125,14.46875
1695730292960,-0.04321289,-1.1292114,0.3727417,2.0,-4.265625,8.453125
1695730292989,-0.1977539,-1.0237427,0.2946167,10.28125,-5.28125,-0.953125
1695730293034,-0.17041016,-0.91363525,0.23602295,0.984375,-2.0,10.765625
1695730293079,-0.06298828,-0.9290161,0.30340576,7.359375,2.3125,10.265625
1695730293109,-0.092041016,-0.99102783,0.27386475,-4.59375,-2.125,-2.078125
1695730293155,-0.076660156,-1.0444946,0.28656006,11.203125,-2.25,3.125
1695730293184,-0.09765625,-1.0154419,0.23919678,8.59375,5.265625,2.5625
1695730293230,-0.18676758,-1.0039673,0.25091553,11.75,4.09375,4.859375
1695730293274,-0.107421875,-0.9072876,0.22015381,2.765625,4.75,8.65625
1695730293307,0.026123047,-0.9470825,0.18597412,-3.59375,5.703125,3.890625
1695730293350,0.048828125,-0.98516846,0.25653076,6.796875,-4.71875,4.65625
1695730293395,-0.06738281,-0.99835205,0.19378662,9.234375,-7.359375,10.171875
1695730293425,-0.035888672,-0.97442627,0.09320068,20.4375,10.234375,13.046875
1695730293469,-0.08227539,-1.1184692,0.25042725,13.953125,8.453125,14.0
1695730293499,0.033691406,-1.0574341,0.07122803,16.125,2.90625,12.109375
1695730293560,0.05029297,-1.034729,0.2584839,-4.140625,-4.0625,9.671875
1695730293590,-0.018066406,-0.91241455,0.029968262,12.390625,0.6875,2.40625
1695730293619,0.1003418,-1.0166626,0.11077881,2.125,2.84375,8.640625
1695730293665,0.09033203,-0.98150635,0.08856201,15.765625,-11.984375,3.1875
1695730293710,0.009765625,-0.8814087,0.12982178,14.1875,-14.5625,12.0
1695730293740,-0.12597656,-0.9380493,-0.030090332,-19.25,-11.484375,14.890625
1695730293785,0.026367188,-1.0230103,0.120788574,10.390625,13.96875,8.953125
1695730293829,0.15771484,-0.98028564,-0.054992676,-7.40625,13.359375,1.484375
1695730293859,0.24804688,-1.2009888,0.17352295,12.078125,13.40625,12.21875
1695730293905,0.17602539,-1.0916138,0.1720581,-7.53125,-19.328125,7.234375
1695730293935,-0.022705078,-1.0957642,-0.04522705,0.421875,-13.484375,-6.96875
1695730293980,-0.13891602,-1.2520142,0.3036499,-19.109375,0.984375,-9.78125
1695730294028,0.064941406,-0.9348755,-0.042297363,-15.1875,15.578125,-18.078125
1695730294054,0.20214844,-1.109436,0.19818115,-15.0625,24.828125,-8.921875
1695730294099,0.03173828,-1.1543579,0.28948975,-22.5625,-11.5625,-30.84375
1695730294130,-0.17944336,-0.98272705,0.15252686,-11.484375,0.328125,-40.828125
1695730294189,-0.17480469,-0.8718872,0.18182373,33.3125,17.140625,-34.59375
1695730294219,-0.11376953,-1.005188,0.10443115,-11.28125,13.171875,-32.421875
1695730294249,-0.10864258,-1.0015259,0.22698975,-20.25,7.546875,-36.609375
1695730294294,-0.05126953,-0.94073486,0.0014038086,-38.390625,-15.453125,-18.25
1695730294339,0.0014648438,-0.88726807,0.023376465,-18.890625,9.15625,-8.390625
1695730294369,0.013916016,-0.98101807,0.13494873,2.40625,-5.515625,3.484375
1695730294414,0.0847168,-1.0725708,0.082214355,-48.03125,-0.375,22.484375
1695730294461,-0.1730957,-0.71343994,0.4755249,6.453125,0.8125,34.140625
1695730294489,-0.5595703,-0.8921509,0.34344482,-1.75,-25.140625,19.359375
1695730294534,-0.09301758,-0.8518677,0.28900146,27.3125,40.0625,24.03125
1695730294565,-0.20776367,-1.0986938,0.40203857,30.5,17.375,-2.78125
1695730294610,-0.22167969,-1.1834106,0.27703857,14.484375,6.796875,-8.984375
1695730294655,0.23852539,-1.0586548,0.30389404,-26.734375,5.34375,4.59375
1695730294687,0.03881836,-0.90753174,0.3554077,-2.125,-20.265625,-3.21875
1695730294730,-0.21582031,-0.788147,0.042907715,-15.765625,-9.59375,7.171875
1695730294775,-0.18457031,-0.9776001,0.25042725,37.46875,34.46875,11.15625
1695730294806,-0.059570312,-1.0444946,0.39276123,51.515625,8.703125,1.046875
1695730294849,-0.2084961,-1.1033325,0.16473389,-13.5625,1.6875,-0.640625
1695730294879,-0.09277344,-1.1365356,0.16375732,3.390625,29.421875,-0.046875
1695730294924,0.07446289,-1.1629028,0.12664795,-14.796875,-1.453125,-16.3125
1695730294968,0.060791016,-1.0484009,0.21624756,-18.96875,-6.078125,-10.140625
1695730294999,-0.007080078,-0.960022,0.16766357,-9.265625,-1.421875,-11.578125
1695730295044,-0.10913086,-0.9133911,0.15765381,4.125,-0.53125,-12.96875
1695730295089,-0.2319336,-0.98028564,0.09490967,-17.640625,-5.234375,2.1875
1695730295119,-0.15600586,-0.98028564,0.23968506,-11.6875,-0.734375,4.6875
1695730295166,0.004638672,-0.9522095,0.21624756,-15.265625,-2.671875,-6.90625
1695730295196,-0.06323242,-0.98150635,0.25457764,9.015625,0.625,-1.328125
1695730295242,-0.15917969,-1.0310669,0.22894287,8.96875,5.25,2.84375
1695730295284,-0.20385742,-0.9590454,0.2543335,12.84375,0.578125,-0.390625
1695730295317,-0.091796875,-0.9365845,0.1305542,-21.515625,-4.6875,0.203125
1695730295359,0.037353516,-1.0527954,0.4069214,-0.671875,-6.671875,-4.78125
1695730295435,-0.20996094,-1.1279907,0.3048706,-11.640625,-20.421875,-3.984375
1695730295438,-0.29663086,-1.0186157,0.14886475,-19.75,0.609375,-4.40625
1695730295478,-0.22631836,-0.89263916,0.18109131,-7.171875,3.03125,-2.40625
1695730295510,-0.123046875,-1.0703735,0.29803467,-20.21875,9.046875,-7.5
1695730295553,-0.049072266,-1.0440063,0.34368896,-24.078125,-0.671875,-10.609375
1695730295598,-0.111572266,-0.8604126,0.28656006,-13.75,-5.125,-10.671875
1695730295629,-0.26635742,-0.89678955,0.3234253,-1.625,4.90625,-6.78125
1695730295674,-0.25463867,-0.9524536,0.33953857,0.546875,5.65625,0.296875
1695730295719,-0.099365234,-1.0122681,0.30145264,-13.0625,14.71875,0.890625
1695730295750,-0.11206055,-0.94854736,0.48431396,-7.671875,-12.296875,11.5
1695730295795,-0.10083008,-0.85528564,0.25286865,-16.28125,-21.40625,2.0625
1695730295823,-0.2668457,-0.9314575,0.34735107,4.140625,-6.640625,3.046875
1695730295870,-0.24291992,-1.0027466,0.40570068,-6.765625,-0.28125,14.59375
1695730295918,-0.07324219,-0.9534302,0.38372803,-10.140625,-5.828125,5.03125
1695730295944,-0.12402344,-0.8928833,0.40203857,7.9375,-1.203125,-0.140625
1695730295989,-0.16357422,-0.9116821,0.43255615,1.6875,-10.0,5.203125
1695730296038,-0.20483398,-0.9619751,0.44110107,12.640625,0.71875,3.84375
1695730296065,-0.11376953,-0.9656372,0.4701538,15.078125,2.71875,-0.9375
1695730296110,-0.100097656,-0.96221924,0.41986084,11.28125,-17.34375,-2.5625
1695730296139,-0.12133789,-0.9866333,0.45159912,-8.15625,-21.109375,0.3125
1695730296186,-0.3798828,-0.89434814,0.27337646,-2.484375,-11.46875,3.234375
1695730296231,-0.22338867,-0.9194946,0.42694092,0.8125,1.375,3.6875
1695730296260,-0.25219727,-0.89190674,0.49871826,7.609375,1.203125,1.234375
1695730296305,-0.39257812,-0.91607666,0.34783936,19.125,25.671875,-4.078125
1695730296365,-0.16259766,-1.0559692,0.39715576,39.15625,43.90625,2.0
1695730296379,-0.21704102,-1.0266724,0.32244873,15.296875,-2.25,2.25
1695730296425,-0.17675781,-1.0003052,0.27581787,-9.796875,-14.015625,-9.796875
1695730296460,-0.08203125,-1.0733032,0.22064209,8.703125,-3.828125,-2.203125
1695730296499,-0.2006836,-1.1358032,-0.009094238,27.359375,-35.40625,28.953125
1695730296547,0.09741211,-0.69610596,0.24578857,-71.84375,52.1875,-3.40625
1695730296573,-0.053955078,-0.8328247,0.3554077,39.9375,-11.828125,-1.65625
1695730296619,-0.2800293,-1.1062622,0.32391357,-8.15625,-1.484375,-5.96875
1695730296665,-0.15551758,-1.0379028,0.23651123,23.109375,16.484375,-4.234375
1695730296694,-0.20166016,-0.9981079,0.30267334,17.15625,-6.421875,3.46875
1695730296739,-0.29614258,-1.1140747,0.27996826,-36.015625,-3.984375,-7.96875
1695730296769,-0.029296875,-0.786438,0.22332764,-17.234375,-6.234375,-11.96875
1695730296814,-0.10424805,-1.0327759,0.276062,-6.25,4.34375,-2.078125
1695730296859,-0.20263672,-1.0213013,0.32757568,12.5,1.25,-6.546875
1695730296889,-0.30664062,-0.958313,0.29119873,11.65625,-9.890625,6.75
1695730296935,-0.28295898,-0.9656372,0.28778076,-32.234375,6.390625,3.296875
1695730296979,-0.08203125,-0.98638916,0.34320068,-10.171875,-12.53125,-2.28125
1695730297010,-0.2211914,-0.9492798,0.23406982,2.359375,4.953125,-9.21875
1695730297054,-0.18066406,-1.015686,0.2970581,7.15625,10.203125,3.578125
1695730297085,-0.21313477,-0.95318604,0.20770264,-8.75,0.171875,3.140625
1695730297129,-0.13110352,-0.90289307,0.369812,17.578125,27.8125,9.984375
1695730297175,-0.22265625,-0.9873657,0.2453003,-4.625,2.3125,3.265625
1695730297206,-0.10229492,-1.0110474,0.27996826,24.21875,7.515625,1.640625
1695730297249,-0.12084961,-0.9065552,0.22088623,7.109375,-11.90625,4.65625
1695730297294,-0.10668945,-1.0747681,0.26141357,-8.15625,24.625,9.390625
1695730297326,-0.21508789,-0.94781494,0.4611206,21.359375,0.53125,18.03125
1695730297368,-0.31323242,-0.9155884,0.17254639,-0.359375,10.296875,6.78125
1695730297399,-0.04248047,-0.91900635,0.16912842,42.109375,6.234375,10.796875
1695730297445,0.032714844,-1.1011353,0.18939209,12.265625,1.984375,4.625
1695730297489,-0.012207031,-0.9573364,0.11517334,12.875,-12.5625,-2.78125
1695730297519,-0.028564453,-0.9873657,0.15594482,9.03125,-6.59375,-3.859375
1695730297564,-0.103759766,-0.99591064,0.15325928,-0.765625,-7.59375,2.609375
1695730297608,-0.10424805,-1.0176392,0.09588623,14.6875,0.671875,13.046875
1695730297639,-0.15429688,-1.1382446,0.13031006,6.609375,1.0,11.453125
1695730297685,-0.09008789,-1.0742798,0.12030029,-2.796875,8.5625,-1.484375
1695730297716,-0.118652344,-0.9734497,0.18353271,-19.0625,-4.140625,-5.28125
1695730297760,0.083496094,-0.7913208,-0.17510986,-12.609375,1.875,13.875
1695730297804,-0.07055664,-1.0747681,0.17449951,9.59375,22.8125,17.625
1695730297835,-0.0073242188,-1.0007935,0.09710693,16.015625,-16.65625,3.609375
1695730297879,-0.0703125,-1.0366821,0.061950684,-0.390625,2.5625,11.515625
1695730297926,0.04248047,-1.0950317,0.16986084,7.4375,-2.484375,9.75
1695730297955,0.051513672,-0.95928955,0.025817871,-3.203125,-5.515625,9.09375
1695730298000,0.007080078,-0.9192505,0.026550293,10.140625,-1.8125,11.640625
1695730298045,0.084472656,-0.9631958,0.026550293,-10.921875,4.0625,6.609375
1695730298077,0.06665039,-1.0007935,0.23309326,-1.25,-0.578125,7.234375
1695730298119,-0.03491211,-1.0310669,0.1798706,-11.984375,-3.640625,-2.359375
1695730298150,-0.08569336,-0.9834595,0.1930542,-7.109375,15.0,-9.140625
1695730298193,-0.060302734,-1.2153931,0.2074585,16.703125,18.09375,-1.796875
1695730298239,0.049072266,-1.1995239,0.07562256,6.828125,6.078125,-8.375
1695730298270,0.07104492,-1.0344849,-0.008605957,2.515625,3.46875,-13.1875
1695730298315,-0.03491211,-1.0432739,-0.055236816,-1.921875,2.046875,-3.046875
1695730298359,0.16748047,-1.1677856,0.14227295,15.96875,15.90625,3.875
1695730298389,0.016601562,-0.81256104,0.012634277,-36.328125,-30.859375,3.109375
1695730298435,0.045898438,-0.6506958,0.12005615,20.21875,-9.234375,-8.609375
1695730298465,-0.19458008,-0.987854,0.06317139,-43.140625,-6.96875,10.859375
1695730298510,0.11303711,-0.833313,-0.0037231445,6.3125,17.34375,1.453125
1695730298555,0.0043945312,-1.201477,0.11907959,8.140625,17.359375,17.96875
1695730298583,-0.06713867,-1.2571411,0.2826538,-5.203125,-12.203125,-0.5625
1695730298631,-0.076660156,-0.9949341,0.07659912,-10.765625,-14.296875,-10.609375
1695730298675,0.064941406,-0.803772,0.093688965,-6.203125,3.3125,-5.09375
1695730298705,0.053955078,-0.98272705,0.093444824,-5.671875,9.90625,0.109375
1695730298750,0.19628906,-0.9937134,0.120788574,-6.921875,8.421875,0.4375
1695730298779,0.05834961,-0.9805298,0.13446045,1.046875,-13.8125,-5.5
1695730298825,0.017822266,-1.0488892,0.10247803,0.875,-5.296875,-1.828125
1695730298870,0.01977539,-1.1028442,0.24456787,0.765625,-11.296875,9.6875
1695730298900,-0.11425781,-0.960022,0.12322998,-23.546875,-19.53125,1.109375
1695730298945,-0.08081055,-1.1028442,0.24920654,-1.6875,0.171875,0.453125
1695730299020,-0.0043945312,-1.0559692,0.27947998,-3.546875,-5.5,-8.609375
1695730299026,-0.068847656,-1.0996704,0.15960693,-7.203125,0.71875,-10.796875
1695730299068,-0.034179688,-1.0808716,0.27850342,1.421875,3.359375,-13.375
1695730299094,-0.095703125,-1.0801392,0.2531128,-10.234375,-4.734375,-12.640625
1695730299139,-0.14404297,-1.0652466,0.17327881,-24.5625,1.734375,-14.984375
1695730299187,-0.03955078,-0.9512329,0.37420654,-16.15625,-0.875,-17.203125
1695730299216,-0.14404297,-0.90460205,0.2345581,-14.890625,-1.15625,-22.046875
1695730299259,-0.11230469,-0.97613525,0.33294678,-24.859375,11.859375,-20.5
1695730299305,-0.2084961,-0.9368286,0.31829834,-13.40625,-7.640625,-15.4375
1695730299334,-0.26367188,-0.8796997,0.31072998,-19.03125,6.96875,-20.03125
1695730299381,-0.2241211,-1.0195923,0.369812,-20.9375,14.0625,-27.0625
1695730299410,-0.23852539,-0.9053345,0.34222412,-35.171875,11.171875,-23.078125
1695730299454,-0.1821289,-0.83551025,0.34906006,-2.625,6.03125,-10.28125
1695730299499,-0.114746094,-0.89630127,0.45550537,-16.5625,4.0625,-1.390625
1695730299529,-0.24609375,-1.0132446,0.41937256,-4.765625,5.15625,-1.078125
1695730299574,-0.32348633,-0.85406494,0.3234253,-26.0,3.28125,-7.28125
1695730299620,-0.10522461,-0.86383057,0.4413452,-15.9375,23.796875,0.484375
1695730299650,-0.22363281,-0.87164307,0.63739014,-17.453125,-7.984375,-0.3125
1695730299693,-0.32885742,-0.8118286,0.4706421,7.71875,3.625,-5.546875
1695730299723,-0.20458984,-0.7337036,0.64593506,26.75,3.5625,14.109375
1695730299769,-0.36254883,-1.0186157,0.4730835,1.796875,1.046875,2.796875
1695730299814,-0.18603516,-0.8550415,0.5211792,15.953125,-1.640625,6.125
1695730299845,-0.23583984,-0.79229736,0.42913818,-19.21875,-6.3125,15.296875
1695730299889,-0.3791504,-0.92926025,0.4442749,4.0,-8.71875,-0.953125
1695730299935,-0.25634766,-0.9158325,0.5216675,6.96875,0.328125,-1.1875
1695730299978,-0.088378906,-0.972229,0.57489014,-1.4375,2.609375,0.046875
1695730300010,-0.26660156,-0.9002075,0.44989014,1.359375,-1.1875,-3.203125
1695730300039,-0.23413086,-0.85162354,0.52459717,-5.15625,-3.890625,3.203125
1695730300085,-0.25732422,-0.91778564,0.5194702,-10.921875,-1.09375,3.234375
1695730300129,-0.21826172,-0.8753052,0.50164795,17.15625,3.5625,7.8125
1695730300159,-0.24804688,-0.96832275,0.57928467,5.640625,-1.71875,11.71875
1695730300205,-0.35253906,-0.850647,0.38909912,12.421875,5.1875,1.375
1695730300249,-0.18261719,-0.87286377,0.513855,9.5,13.296875,4.265625
1695730300279,-0.23413086,-0.9307251,0.45819092,0.625,-1.921875,4.6875
1695730300324,-0.18139648,-0.97906494,0.53900146,6.28125,2.984375,-3.5625
1695730300357,-0.21533203,-0.88482666,0.42669678,0.53125,1.109375,-3.734375
1695730300399,-0.20947266,-0.9192505,0.4274292,4.40625,5.484375,1.0
1695730300445,-0.27905273,-1.0022583,0.45721436,5.875,-2.578125,0.9375
1695730300478,-0.21606445,-0.8545532,0.42425537,2.1875,11.015625,6.46875
1695730300520,-0.19555664,-0.8423462,0.51849365,-16.515625,7.796875,0.328125
1695730300565,-0.36523438,-0.9446411,0.46063232,-0.96875,-5.34375,-0.640625
1695730300593,-0.0703125,-0.9463501,0.40252686,13.515625,19.546875,-9.46875
1695730300637,-0.13085938,-0.9636841,0.46087646,8.3125,0.453125,-1.515625
1695730300668,-0.23706055,-0.9475708,0.4093628,-6.8125,-0.078125,-1.625
1695730300719,-0.18310547,-0.925354,0.45794678,-4.640625,1.375,-4.0
1695730300760,-0.23754883,-0.91363525,0.44744873,5.390625,1.9375,-4.625
1695730300789,-0.21972656,-0.9475708,0.4196167,2.65625,5.859375,-6.65625
1695730300835,-0.1809082,-0.9290161,0.47869873,35.46875,8.5625,-11.09375
1695730300879,-0.2944336,-0.85479736,0.36590576,44.109375,25.53125,-15.078125
1695730300912,-0.30688477,-0.9151001,0.25872803,32.15625,26.65625,0.3125
1695730300954,-0.23901367,-0.97369385,0.25506592,15.953125,22.5,7.28125
1695730300984,-0.16845703,-1.0674438,0.27215576,11.875,8.015625,-1.6875
1695730301030,-0.18676758,-1.0928345,0.29779053,11.890625,2.6875,-0.421875
1695730301076,-0.18237305,-1.1587524,0.047546387,-37.1875,-12.53125,6.703125
1695730301104,-0.064697266,-0.86260986,0.17376709,-43.5625,-4.390625,11.71875
1695730301150,-0.10864258,-0.7876587,0.39837646,-10.53125,-16.921875,4.890625
1695730301197,-0.19873047,-1.0618286,0.4352417,9.375,-11.90625,6.90625
1695730301224,-0.28979492,-0.960022,0.23944092,10.125,7.71875,-5.46875
1695730301272,-0.19824219,-0.8921509,0.27093506,21.390625,-1.140625,5.359375
1695730301301,-0.2241211,-1.1253052,0.36566162,-4.359375,-6.984375,9.359375
1695730301347,-0.17919922,-0.958313,0.39007568,-19.375,-6.25,1.578125
1695730301390,-0.26098633,-0.8772583,0.18572998,-11.359375,-13.109375,-5.546875
1695730301420,-0.107421875,-1.0359497,0.32025146,9.765625,19.921875,10.8125
1695730301466,-0.043701172,-0.93096924,0.2592163,19.140625,3.8125,1.4375
1695730301510,-0.14501953,-0.8640747,0.34075928,40.5625,-10.875,5.984375
1695730301539,-0.41137695,-0.9793091,0.19378662,-19.71875,-9.15625,16.234375
1695730301587,-0.08691406,-1.1101685,0.33221436,5.375,30.703125,8.5625
1695730301630,-0.14892578,-0.9553833,0.3661499,18.875,-1.5,-5.140625
1695730301659,-0.09716797,-0.927063,0.09515381,6.15625,13.34375,2.453125
1695730301705,-0.1081543,-1.0044556,0.23382568,8.609375,1.984375,2.359375
1695730301734,-0.048339844,-0.9414673,0.24261475,-5.171875,-8.640625,-6.1875
1695730301779,-0.07470703,-1.0049438,0.2567749,-7.078125,-4.21875,2.78125
1695730301826,-0.1706543,-1.0322876,0.32904053,-8.6875,-7.5,1.0625
1695730301854,-0.22851562,-1.0149536,0.23162842,-9.125,-14.921875,-6.671875
1695730301899,-0.22924805,-1.0789185,0.2711792,-7.609375,12.40625,-6.625
1695730301946,-0.15136719,-0.9741821,0.3168335,-5.5625,-4.703125,-3.828125
1695730301974,-0.15649414,-1.0007935,0.3390503,-17.921875,4.28125,-8.71875
1695730302019,-0.30786133,-0.98394775,0.33319092,-10.140625,0.125,-9.6875
1695730302064,-0.24047852,-0.9168091,0.43011475,-11.6875,16.203125,-18.890625
1695730302095,-0.23876953,-0.928772,0.260437,13.5625,7.0625,-10.625
1695730302144,-0.2265625,-1.0632935,0.27581787,0.09375,32.984375,-14.3125
1695730302169,-0.18164062,-0.98028564,0.23065186,-3.109375,23.78125,-19.546875
1695730302214,-0.12719727,-0.93096924,0.28875732,-3.796875,19.015625,-10.984375
1695730302289,-0.17016602,-0.96417236,0.25115967,-0.03125,-3.625,0.625
1695730302292,-0.14868164,-0.9404907,0.18255615,16.6875,-7.421875,7.015625
1695730302334,-0.22436523,-1.0430298,0.27825928,6.28125,-26.109375,24.6875
1695730302412,-0.12060547,-0.8345337,0.41497803,-42.765625,-13.859375,19.109375
1695730302418,-0.2602539,-1.0112915,0.26678467,-18.140625,-6.078125,-5.8125
1695730302456,-0.22631836,-1.0420532,0.324646,21.21875,28.625,-18.0625
1695730302484,-0.17578125,-0.96954346,0.50115967,18.09375,13.0,2.125
1695730302530,-0.32592773,-0.9234009,0.34051514,-7.578125,-24.96875,1.765625
1695730302574,-0.22680664,-0.8272095,0.37542725,-15.859375,-16.96875,-6.140625
1695730302604,-0.13427734,-0.9002075,0.3312378,-10.328125,-7.15625,5.375
1695730302650,-0.25170898,-1.1428833,0.44940186,13.375,9.96875,8.640625
1695730302678,-0.28320312,-0.97613525,0.3986206,-7.796875,-10.65625,-5.375
1695730302724,-0.26757812,-0.75250244,0.22357178,-11.421875,0.890625,0.875
1695730302769,-0.22851562,-1.0130005,0.48651123,7.734375,-7.15625,8.015625
1695730302799,-0.27124023,-1.0081177,0.46844482,-18.703125,-2.21875,-2.078125
1695730302847,-0.20019531,-0.8796997,0.36663818,-14.359375,-4.59375,-4.765625
1695730302889,-0.23022461,-0.9468384,0.46600342,-5.921875,1.390625,-2.703125
1695730302919,-0.27197266,-0.8633423,0.36761475,-15.625,-4.828125,-3.625
1695730302965,-0.32910156,-1.0369263,0.5026245,20.3125,10.828125,9.078125
1695730302996,-0.23266602,-0.9534302,0.39349365,-32.75,-3.515625,-10.890625
1695730303038,-0.15698242,-0.8723755,0.44940186,-0.484375,-5.28125,-4.296875
1695730303099,-0.28808594,-0.881897,0.40667725,-12.078125,3.59375,-3.015625
1695730303114,-0.2421875,-0.9221802,0.41571045,4.390625,8.984375,-0.078125
1695730303159,-0.19433594,-0.8220825,0.53289795,18.859375,1.1875,7.421875
1695730303205,-0.37670898,-0.91973877,0.4015503,-8.453125,1.828125,12.859375
1695730303235,-0.20800781,-1.0022583,0.47235107,2.390625,18.875,2.5625
1695730303279,-0.06958008,-1.0298462,0.57977295,5.625,-4.375,-0.359375
1695730303312,-0.3581543,-0.848938,0.262146,-7.78125,-9.359375,0.34375
1695730303355,-0.3527832,-0.8982544,0.36883545,5.703125,13.84375,-3.84375
1695730303400,-0.107666016,-1.0090942,0.50579834,-7.3125,7.546875,-4.09375
1695730303430,-0.12963867,-0.94073486,0.50286865,-22.90625,-17.546875,-1.984375
1695730303476,-0.27734375,-0.80303955,0.39544678,-5.8125,-7.734375,-6.859375
1695730303519,-0.1928711,-1.0322876,0.66278076,-9.140625,-0.28125,-7.203125
1695730303550,-0.4086914,-0.80718994,0.33709717,-11.09375,-16.765625,-5.3125
1695730303597,-0.28125,-0.8477173,0.4874878,19.25,24.015625,2.15625
1695730303624,-0.18774414,-0.892395,0.46502686,11.46875,4.171875,9.1875
1695730303670,-0.2241211,-0.9290161,0.45892334,1.1875,-3.09375,4.359375
1695730303715,-0.22875977,-0.9451294,0.5009155,-10.359375,-4.609375,-1.03125
1695730303743,-0.3059082,-0.93707275,0.45233154,-16.03125,-5.15625,-4.84375
1695730303790,-0.20776367,-0.8960571,0.3932495,-8.96875,-11.203125,2.0625
1695730303838,-0.19458008,-0.89385986,0.5133667,-14.0625,11.78125,0.9375
1695730303864,-0.19311523,-0.8718872,0.42694092,-8.234375,-1.578125,6.109375
1695730303910,-0.18041992,-0.8760376,0.6220093,4.25,2.59375,1.40625
1695730303939,-0.43139648,-0.93170166,0.52093506,12.65625,3.46875,2.515625
1695730303986,-0.25390625,-0.7979126,0.496521,35.953125,26.09375,-0.296875
1695730304030,-0.17895508,-0.98638916,0.56903076,16.578125,6.40625,11.890625
1695730304060,-0.31518555,-0.8345337,0.45062256,1.78125,-11.109375,1.046875
1695730304104,-0.23242188,-0.8677368,0.40423584,-3.5625,2.484375,-3.9375
1695730304148,-0.16015625,-0.9780884,0.42913818,-9.578125,-2.34375,8.8125
1695730304178,-0.11767578,-1.0371704,0.4953003,-2.09375,4.234375,1.640625
1695730304223,-0.3178711,-0.8921509,0.44866943,-3.921875,-2.890625,-3.5625
1695730304254,-0.2734375,-0.84552,0.40203857,-8.609375,10.984375,1.328125
1695730304300,-0.21386719,-0.95098877,0.45013428,15.109375,17.609375,1.734375
1695730304345,-0.1730957,-0.95440674,0.4616089,1.796875,8.703125,-6.984375
1695730304374,-0.16503906,-0.88531494,0.52093506,7.6875,10.203125,-1.78125
1695730304419,-0.20507812,-0.8699341,0.5001831,2.890625,1.453125,-3.71875
1695730304464,-0.24536133,-0.87994385,0.41888428,5.5625,9.640625,-7.53125
1695730304494,-0.14672852,-0.97320557,0.48553467,22.234375,12.015625,-3.296875
1695730304540,-0.18359375,-0.96954346,0.41497803,14.328125,-6.59375,-4.625
1695730304571,-0.25268555,-0.87091064,0.30413818,-7.375,-6.8125,1.53125
1695730304614,-0.18969727,-0.9446411,0.41815186,0.8125,5.359375,4.4375
1695730304659,-0.17407227,-1.024231,0.47088623,7.09375,-2.546875,2.40625
1695730304689,-0.24731445,-0.95928955,0.40252686,5.578125,0.53125,1.953125
1695730304734,-0.2265625,-0.90704346,0.29681396,9.59375,1.78125,-0.421875
1695730304779,-0.21118164,-0.9776001,0.41888428,4.546875,-0.140625,4.625
1695730304809,-0.21508789,-0.94610596,0.3493042,-16.5,-7.171875,3.375
1695730304854,-0.23461914,-1.0049438,0.4249878,14.265625,5.015625,2.96875
1695730304886,-0.13330078,-0.9429321,0.30340576,-11.28125,-12.015625,-0.140625
1695730304929,-0.3803711,-0.9138794,0.34075928,16.609375,-1.734375,-2.6875
1695730304974,-0.19555664,-1.0232544,0.35394287,8.25,8.453125,-0.75
1695730305004,-0.20727539,-0.96466064,0.28167725,3.078125,1.40625,-9.359375
1695730305049,-0.13769531,-0.9319458,0.36639404,8.75,2.65625,6.03125
1695730305094,-0.19702148,-0.9771118,0.36566162,2.734375,-2.84375,2.234375
1695730305125,-0.2746582,-0.9456177,0.35614014,-0.71875,-7.015625,-0.25
1695730305169,-0.22290039,-1.0005493,0.25164795,4.046875,4.5,2.28125
1695730305199,-0.3059082,-0.98565674,0.2946167,13.8125,5.296875,-3.890625
1695730305244,-0.2536621,-1.0230103,0.2909546,5.90625,6.046875,-3.0625
1695730305289,-0.18188477,-0.92559814,0.33953857,-1.703125,4.28125,0.828125
1695730305319,-0.26367188,-0.8689575,0.3600464,-12.140625,-4.859375,0.4375
1695730305365,-0.31445312,-0.95806885,0.27874756,-14.65625,16.65625,5.984375
1695730305410,-0.2290039,-1.0518188,0.32122803,1.796875,15.296875,-0.546875
1695730305439,-0.16674805,-0.9492798,0.41375732,16.65625,12.875,-7.3125
1695730305484,-0.24316406,-1.0164185,0.3444214,-18.640625,2.953125,-10.203125
1695730305529,-0.28833008,-0.9368286,0.24920654,-7.375,14.859375,-21.625
1695730305559,-0.20654297,-0.9055786,0.3480835,9.921875,27.21875,-21.296875
1695730305604,-0.15478516,-1.0413208,0.3241577,-6.53125,15.15625,-9.578125
1695730305634,-0.20043945,-0.92266846,0.3463745,9.265625,8.953125,-13.390625
1695730305679,-0.29785156,-0.97613525,0.25823975,11.203125,1.03125,0.640625
1695730305725,-0.24267578,-0.8826294,0.18914795,12.109375,-9.53125,24.625
1695730305756,-0.2043457,-0.94903564,0.35125732,-39.59375,-18.484375,24.875
1695730305800,-0.18481445,-0.8587036,0.3793335,-87.203125,-23.578125,12.671875
1695730305845,-0.19604492,-1.0357056,0.52386475,10.5625,-17.59375,-4.65625
1695730305877,-0.4169922,-0.9595337,0.39642334,-14.0,2.984375,-9.0
1695730305919,-0.28979492,-0.84454346,0.5350952,23.78125,3.375,-0.25
1695730305951,-0.25683594,-0.8069458,0.2741089,-4.265625,2.53125,5.0625
1695730305998,-0.16357422,-0.97540283,0.56365967,-20.5625,-14.78125,14.0
1695730306040,-0.171875,-0.9314575,0.4430542,-23.984375,-6.421875,-0.328125
1695730306070,-0.25,-0.98687744,0.4882202,18.90625,-5.1875,6.703125
1695730306117,-0.3005371,-0.85943604,0.40570068,1.625,-2.140625,1.203125
1695730306159,-0.28271484,-0.93414307,0.44573975,11.375,0.375,-0.46875
1695730306204,-0.21435547,-0.9612427,0.369812,-26.125,-2.625,-1.09375
1695730306234,-0.18481445,-0.9326782,0.4389038,5.234375,-2.125,-4.265625
1695730306266,-0.29223633,-0.9265747,0.44866943,-1.0,1.1875,-1.5625
1695730306310,-0.26782227,-0.8821411,0.48284912,1.40625,2.578125,-2.578125
1695730306357,-0.234375,-0.94610596,0.41033936,5.65625,3.265625,-3.703125
1695730306383,-0.2109375,-0.8899536,0.44573975,2.953125,-2.53125,-0.21875
1695730306430,-0.29077148,-0.9155884,0.3637085,-17.890625,-6.15625,5.421875
1695730306510,-0.16625977,-1.0606079,0.39666748,-3.0,14.09375,5.765625
1695730306517,-0.30249023,-0.9085083,0.5687866,9.9375,12.203125,2.765625
1695730306550,-0.3173828,-0.82037354,0.52923584,-5.875,-17.4375,7.75
1695730306579,-0.265625,-0.8543091,0.29071045,-3.0625,7.546875,8.46875
1695730306625,-0.23339844,-0.91607666,0.55218506,22.515625,0.234375,3.46875
1695730306670,-0.2241211,-0.9776001,0.42791748,4.921875,-3.015625,-9.0
1695730306700,-0.24438477,-0.91778564,0.4694214,30.359375,-9.0,-2.203125
1695730306744,-0.3557129,-0.84747314,0.29852295,-4.078125,-1.5,-5.5625
1695730306790,-0.29052734,-1.0171509,0.37127686,8.34375,16.96875,-9.0625
1695730306819,-0.20361328,-1.0733032,0.4550171,4.859375,18.453125,-5.921875
1695730306868,-0.28149414,-0.92559814,0.27996826,-9.390625,3.65625,-10.5
1695730306894,-0.31152344,-0.91607666,0.31976318,-6.40625,6.640625,-2.40625
1695730306939,-0.09448242,-0.9873657,0.2296753,8.921875,3.171875,1.421875
1695730306985,-0.13647461,-0.88165283,0.3456421,-17.828125,20.609375,-3.71875
1695730307014,-0.2512207,-0.8652954,0.47821045,-37.5625,-18.265625,11.125
1695730307059,-0.26782227,-1.000061,0.4862671,13.921875,-4.984375,-0.15625
1695730307120,-0.28955078,-0.90753174,0.41204834,-9.84375,8.609375,-12.625
1695730307134,-0.31518555,-0.92681885,0.4694214,29.984375,4.484375,3.8125
1695730307179,-0.19213867,-0.93292236,0.3468628,-6.203125,8.21875,4.5625
1695730307209,-0.22167969,-0.9751587,0.3114624,-25.765625,10.078125,-1.53125
1695730307255,-0.21484375,-0.8970337,0.55218506,31.015625,36.1875,7.15625
1695730307299,-0.17993164,-0.83380127,0.52557373,-26.0,-14.234375,11.640625
1695730307329,-0.20288086,-0.8484497,0.2826538,11.6875,-1.4375,4.765625
1695730307375,-0.19873047,-1.0025024,0.49261475,15.53125,2.359375,0.3125
1695730307420,-0.26733398,-0.866272,0.44207764,3.3125,-14.0625,5.03125
1695730307449,-0.21264648,-0.9229126,0.401062,-1.125,-0.578125,3.46875
1695730307494,-0.19042969,-0.9805298,0.47625732,-1.109375,-3.109375,6.796875
1695730307525,-0.29638672,-0.92559814,0.36151123,-7.25,-2.328125,0.21875
1695730307569,-0.17749023,-0.9390259,0.4179077,6.015625,2.296875,-5.203125
1695730307613,-0.123535156,-0.9402466,0.37542725,1.140625,-0.75,-1.8125
1695730307644,-0.2290039,-0.9092407,0.43011475,-2.109375,-7.765625,0.0625
1695730307689,-0.2590332,-0.9092407,0.4628296,-16.375,-17.453125,-0.171875
1695730307734,-0.111816406,-1.0090942,0.40594482,-3.203125,17.6875,-7.296875
1695730307779,-0.34106445,-0.9973755,0.51776123,-4.296875,-2.4375,2.921875
1695730307809,-0.18481445,-0.86968994,0.2897339,-10.828125,1.328125,-4.140625
1695730307838,-0.2692871,-0.92755127,0.48919678,13.4375,2.78125,-4.203125
1695730307900,-0.072021484,-0.90411377,0.41156006,-11.9375,1.578125,2.640625
1695730307929,-0.28051758,-0.9146118,0.50897217,-5.96875,-16.015625,-3.265625
1695730307959,-0.3605957,-0.9319458,0.38934326,-3.0,6.109375,3.09375
1695730308005,-0.2668457,-0.97125244,0.5392456,3.125,10.4375,-1.703125
1695730308053,-0.25195312,-0.8640747,0.5009155,-2.640625,-2.265625,-9.015625
1695730308079,-0.28051758,-0.9483032,0.32977295,26.46875,6.15625,-3.390625
1695730308125,-0.09814453,-1.0112915,0.39642334,20.75,18.0625,-14.5
1695730308155,-0.23339844,-0.76885986,0.2843628,19.34375,-17.109375,0.890625
1695730308200,-0.31958008,-0.98394775,0.3842163,22.703125,1.203125,6.859375
1695730308244,-0.30371094,-1.0640259,0.30804443,-16.578125,6.1875,8.515625
1695730308277,-0.18701172,-0.8921509,0.4393921,-21.28125,3.609375,3.984375
1695730308320,-0.2475586,-0.8418579,0.43084717,-32.34375,-26.15625,2.796875
1695730308364,-0.28588867,-0.9783325,0.37176514,3.734375,9.84375,-5.234375
1695730308395,-0.1862793,-0.9663696,0.47991943,3.03125,8.21875,-4.390625
1695730308439,-0.25756836,-0.83062744,0.4052124,20.328125,-10.296875,-0.234375
1695730308469,-0.21850586,-0.99542236,0.3258667,-15.609375,1.640625,3.296875
