,timestamp,accel_x,accel_y,accel_z,gyro_x,gyro_y,gyro_z
0,1695730474295,-0.4243164,-0.89630127,0.38201904,0.234375,4.0,-0.59375
1,1695730474324,-0.40405273,-0.8909302,0.39788818,0.859375,2.296875,0.40625
2,1695730474367,-0.4206543,-0.880188,0.37957764,-0.09375,3.359375,0.640625
3,1695730474446,-0.42797852,-0.8960571,0.37298584,-0.9375,3.265625,-0.265625
4,1695730474450,-0.4013672,-0.892395,0.38909912,0.703125,1.03125,0.5
5,1695730474489,-0.40551758,-0.8838501,0.387146,-0.71875,3.234375,0.09375
6,1695730474518,-0.4326172,-0.8862915,0.38153076,-0.078125,2.03125,-0.484375
7,1695730474566,-0.4152832,-0.8945923,0.385437,-0.53125,2.625,-0.734375
8,1695730474608,-0.4169922,-0.8948364,0.38446045,-0.6875,3.828125,-0.78125
9,1695730474639,-0.40820312,-0.87457275,0.3895874,0.0,2.609375,-0.78125
10,1695730474683,-0.41552734,-0.8838501,0.3998413,0.4375,2.125,0.0625
11,1695730474729,-0.41918945,-0.89849854,0.38031006,-0.734375,2.90625,-0.625
12,1695730474759,-0.40576172,-0.8989868,0.38201904,1.734375,5.015625,-0.53125
13,1695730474803,-0.41259766,-0.8706665,0.39007568,-0.421875,4.171875,-0.734375
14,1695730474835,-0.42822266,-0.88165283,0.38983154,0.09375,2.203125,-0.625
15,1695730474879,-0.40307617,-0.89849854,0.39959717,2.609375,1.71875,-0.671875
16,1695730474924,-0.41308594,-0.8855591,0.36590576,-0.265625,2.46875,-0.28125
17,1695730474952,-0.41748047,-0.88287354,0.387146,-0.765625,1.859375,-1.515625
18,1695730474998,-0.42333984,-0.89141846,0.40057373,1.09375,2.25,-0.015625
19,1695730475043,-0.4033203,-0.87701416,0.37860107,0.3125,1.9375,-0.125
20,1695730475073,-0.40161133,-0.88287354,0.38494873,0.953125,-0.078125,0.125
21,1695730475121,-0.42895508,-0.8921509,0.37908936,2.390625,2.28125,0.046875
22,1695730475148,-0.41455078,-0.8892212,0.38616943,2.390625,1.828125,1.046875
23,1695730475194,-0.40527344,-0.88653564,0.37469482,1.296875,-0.21875,0.421875
24,1695730475238,-0.43041992,-0.8892212,0.38641357,2.9375,1.546875,1.078125
25,1695730475270,-0.41357422,-0.8838501,0.3661499,0.6875,0.546875,1.1875
26,1695730475314,-0.39697266,-0.894104,0.37908936,1.5625,0.84375,1.1875
27,1695730475360,-0.42163086,-0.90802,0.36639404,0.375,-0.84375,1.015625
28,1695730475389,-0.40844727,-0.8845825,0.36663818,0.671875,0.296875,0.34375
29,1695730475435,-0.4050293,-0.8892212,0.35809326,-1.0625,-0.828125,0.859375
30,1695730475464,-0.41259766,-0.9116821,0.3624878,-1.8125,-0.578125,0.265625
31,1695730475510,-0.38720703,-0.89263916,0.36468506,-1.6875,-1.015625,0.703125
32,1695730475555,-0.40039062,-0.89508057,0.371521,-2.203125,-1.671875,0.3125
33,1695730475584,-0.42578125,-0.89263916,0.36761475,-2.734375,0.0625,-0.203125
34,1695730475630,-0.38745117,-0.89312744,0.35638428,-2.296875,-2.265625,0.890625
35,1695730475675,-0.33618164,-0.878479,0.40374756,5.0625,-6.65625,0.359375
36,1695730475705,-0.4543457,-0.90460205,0.34197998,-2.390625,-5.046875,3.09375
37,1695730475751,-0.40942383,-0.88897705,0.3475952,-1.703125,1.921875,2.578125
38,1695730475779,-0.4033203,-0.91192627,0.3847046,2.4375,7.328125,5.578125
39,1695730475825,-0.41674805,-0.92681885,0.36517334,-0.875,8.890625,5.484375
40,1695730475870,-0.32958984,-0.8826294,0.3468628,2.28125,9.953125,3.703125
41,1695730475899,-0.32592773,-0.9026489,0.37908936,5.375,10.921875,4.328125
42,1695730475945,-0.36376953,-0.93536377,0.3895874,3.5,9.875,2.5
43,1695730475993,-0.3413086,-0.90289307,0.3600464,3.78125,10.734375,0.109375
44,1695730476020,-0.32348633,-0.89971924,0.36932373,3.5625,11.0,-1.703125
45,1695730476065,-0.34594727,-0.92315674,0.38568115,2.3125,10.203125,-2.515625
46,1695730476095,-0.33496094,-0.89971924,0.34735107,0.515625,6.890625,-3.71875
47,1695730476139,-0.33984375,-0.8796997,0.3842163,1.640625,5.671875,-5.46875
48,1695730476184,-0.4038086,-0.9055786,0.3781128,0.71875,5.5625,-5.078125
49,1695730476215,-0.4050293,-0.9397583,0.35321045,1.140625,7.609375,-4.109375
50,1695730476261,-0.34960938,-0.956604,0.35516357,2.765625,9.328125,-4.140625
51,1695730476303,-0.3383789,-0.90753174,0.3632202,2.96875,8.3125,-3.546875
52,1695730476333,-0.37304688,-0.90582275,0.37225342,3.796875,6.46875,-2.046875
53,1695730476379,-0.36669922,-0.89263916,0.35125732,2.640625,6.71875,-2.03125
54,1695730476408,-0.38134766,-0.8977661,0.35931396,5.875,8.4375,-3.65625
55,1695730476454,-0.37548828,-0.8970337,0.39227295,8.671875,9.25,-4.8125
56,1695730476499,-0.44018555,-0.8994751,0.33392334,6.0,12.515625,-7.21875
57,1695730476529,-0.45214844,-0.8677368,0.2904663,11.0625,13.546875,-9.71875
58,1695730476575,-0.4572754,-0.88848877,0.3451538,15.375,17.359375,-6.796875
59,1695730476619,-0.4777832,-0.8960571,0.31243896,8.734375,11.40625,-10.078125
60,1695730476649,-0.4560547,-0.94415283,0.30291748,9.421875,8.984375,-10.0625
61,1695730476695,-0.42333984,-0.96295166,0.32659912,5.375,5.21875,-5.234375
62,1695730476724,-0.46313477,-0.9351196,0.36883545,3.96875,0.953125,-3.75
63,1695730476767,-0.42578125,-0.8945923,0.3336792,-4.984375,2.859375,-0.140625
64,1695730476815,-0.46899414,-0.878479,0.2958374,-2.46875,2.828125,4.5625
65,1695730476844,-0.47998047,-0.8357544,0.2929077,-4.53125,-0.046875,0.578125
66,1695730476890,-0.45532227,-0.88531494,0.3012085,-4.265625,-1.28125,1.046875
67,1695730476935,-0.4489746,-0.90338135,0.27630615,-7.703125,-4.671875,2.125
68,1695730476967,-0.48364258,-0.89630127,0.31097412,-10.1875,-8.515625,1.734375
69,1695730477010,-0.49975586,-0.88116455,0.29730225,-11.609375,-8.828125,3.21875
70,1695730477054,-0.49902344,-0.87628174,0.31170654,-13.53125,-8.828125,2.609375
71,1695730477085,-0.4711914,-0.87701416,0.307312,-13.203125,-14.40625,-1.734375
72,1695730477130,-0.47973633,-0.9380493,0.3451538,-11.515625,-15.796875,-1.859375
73,1695730477159,-0.51000977,-0.9475708,0.36273193,-12.25,-11.84375,-1.15625
74,1695730477205,-0.4248047,-0.8833618,0.35198975,-5.765625,-4.5625,0.46875
75,1695730477266,-0.32348633,-0.829895,0.40081787,-3.703125,-4.109375,4.328125
76,1695730477280,-0.3947754,-0.8201294,0.3649292,-9.921875,-8.03125,5.25
77,1695730477325,-0.44091797,-0.878479,0.35687256,-7.8125,-13.078125,7.515625
78,1695730477370,-0.38452148,-0.88409424,0.45770264,-7.21875,-10.78125,5.640625
79,1695730477400,-0.47265625,-0.8765259,0.4418335,-10.53125,-6.328125,4.875
80,1695730477446,-0.43481445,-0.8569946,0.39422607,-8.921875,-2.1875,8.046875
81,1695730477475,-0.375,-0.8604126,0.42034912,-8.46875,-7.453125,5.09375
82,1695730477520,-0.4309082,-0.88409424,0.39593506,-6.0,-5.109375,3.21875
83,1695730477566,-0.41870117,-0.89630127,0.416687,-7.125,-5.15625,5.359375
84,1695730477594,-0.35864258,-0.8731079,0.46624756,-5.203125,-2.234375,6.34375
85,1695730477639,-0.42456055,-0.85772705,0.43695068,-3.546875,0.515625,6.0
86,1695730477716,-0.43530273,-0.8921509,0.44451904,-2.578125,1.125,6.828125
87,1695730477719,-0.38330078,-0.8604126,0.4442749,-3.375,0.8125,7.8125
88,1695730477760,-0.37646484,-0.8526001,0.4491577,0.578125,5.296875,7.203125
89,1695730477843,-0.38793945,-0.8904419,0.44158936,-1.03125,1.875,6.15625
90,1695730477845,-0.37670898,-0.86431885,0.4484253,0.90625,1.921875,5.40625
91,1695730477878,-0.37670898,-0.8753052,0.43841553,-0.75,4.78125,5.25
92,1695730477922,-0.3425293,-0.8772583,0.45257568,0.171875,1.96875,3.15625
93,1695730477954,-0.36914062,-0.880188,0.44818115,-1.234375,2.5,3.4375
94,1695730477999,-0.3552246,-0.90045166,0.45013428,0.96875,2.640625,2.984375
95,1695730478029,-0.31958008,-0.880188,0.43743896,-3.390625,3.125,1.96875
96,1695730478074,-0.34594727,-0.8887329,0.4772339,-0.421875,5.28125,1.0
97,1695730478106,-0.3544922,-0.90093994,0.449646,0.75,2.125,3.078125
98,1695730478149,-0.30566406,-0.8882446,0.44891357,-0.390625,3.1875,1.046875
99,1695730478194,-0.30322266,-0.89971924,0.4472046,-1.28125,2.8125,1.421875
100,1695730478224,-0.3161621,-0.91363525,0.4677124,-0.421875,2.53125,1.171875
101,1695730478271,-0.30444336,-0.88287354,0.4533081,-0.859375,1.0,1.21875
102,1695730478330,-0.32226562,-0.88360596,0.45159912,-0.84375,-0.015625,-0.015625
103,1695730478346,-0.33789062,-0.88287354,0.45721436,0.78125,-1.453125,0.765625
104,1695730478389,-0.31567383,-0.87628174,0.4598999,0.890625,0.234375,-0.125
105,1695730478419,-0.3449707,-0.8870239,0.45184326,-0.234375,1.375,-0.6875
106,1695730478465,-0.33789062,-0.8948364,0.44622803,0.15625,2.828125,-1.046875
107,1695730478510,-0.31591797,-0.8845825,0.4545288,0.984375,2.84375,-1.4375
108,1695730478540,-0.34033203,-0.8911743,0.4611206,0.453125,2.546875,-2.25
109,1695730478587,-0.36328125,-0.8909302,0.43670654,-0.625,1.890625,-2.265625
110,1695730478645,-0.34326172,-0.8833618,0.4484253,-0.125,2.09375,-3.234375
111,1695730478661,-0.35107422,-0.89508057,0.447937,-0.8125,3.8125,-3.203125
112,1695730478711,-0.34521484,-0.8928833,0.4623413,1.1875,1.75,-3.71875
113,1695730478737,-0.36743164,-0.8897095,0.43597412,-2.578125,2.28125,-3.875
114,1695730478795,-0.36401367,-0.8911743,0.44696045,-0.890625,4.328125,-4.203125
115,1695730478825,-0.35888672,-0.88238525,0.44866943,-0.84375,2.59375,-2.734375
116,1695730478855,-0.35766602,-0.8904419,0.46087646,0.015625,2.140625,-4.09375
117,1695730478900,-0.3671875,-0.87286377,0.45648193,-0.453125,3.828125,-3.375
118,1695730478945,-0.36816406,-0.8994751,0.44989014,0.5625,3.296875,-2.734375
119,1695730478975,-0.3515625,-0.8777466,0.45355225,0.5,2.359375,-2.15625
120,1695730479020,-0.36401367,-0.8838501,0.45062256,1.0625,2.078125,-1.90625
121,1695730479049,-0.38842773,-0.8792114,0.43792725,-0.03125,1.828125,-1.015625
122,1695730479095,-0.35986328,-0.88360596,0.44647217,0.53125,0.40625,-0.78125
123,1695730479139,-0.37353516,-0.8831177,0.4335327,0.875,-1.078125,-1.515625
124,1695730479169,-0.39111328,-0.8843384,0.4472046,1.0,1.015625,-1.140625
125,1695730479214,-0.3935547,-0.87042236,0.43719482,1.21875,-0.015625,-0.75
126,1695730479261,-0.38354492,-0.8809204,0.43450928,0.609375,0.671875,-0.8125
127,1695730479290,-0.3774414,-0.87457275,0.43475342,0.296875,0.328125,-1.3125
128,1695730479335,-0.40307617,-0.87164307,0.42718506,1.234375,-1.78125,-1.03125
129,1695730479364,-0.38671875,-0.8789673,0.4389038,0.8125,-0.765625,-0.71875
130,1695730479410,-0.38256836,-0.88848877,0.41937256,-0.0625,0.21875,-0.34375
131,1695730479455,-0.40063477,-0.8740845,0.42645264,-0.296875,0.34375,-0.46875
132,1695730479484,-0.39038086,-0.878479,0.43377686,-0.078125,0.875,0.296875
133,1695730479529,-0.38476562,-0.8723755,0.43670654,0.671875,-1.890625,-0.59375
134,1695730479575,-0.40405273,-0.8855591,0.42230225,-0.1875,-2.21875,-0.078125
135,1695730479605,-0.40234375,-0.86846924,0.43621826,-1.109375,-1.484375,-0.1875
136,1695730479649,-0.40649414,-0.87628174,0.43719482,0.09375,-0.265625,0.90625
137,1695730479680,-0.4033203,-0.88165283,0.4142456,-1.296875,-0.640625,0.046875
138,1695730479726,-0.38427734,-0.87628174,0.4406128,0.328125,-0.390625,0.21875
139,1695730479771,-0.4116211,-0.8665161,0.43133545,-0.75,-0.9375,-0.265625
140,1695730479799,-0.41137695,-0.8753052,0.42840576,-0.25,1.1875,0.0625
141,1695730479843,-0.4050293,-0.8804321,0.42303467,-0.71875,-0.09375,-0.5625
142,1695730479891,-0.41796875,-0.8760376,0.43133545,-0.875,1.8125,-0.109375
143,1695730479920,-0.39575195,-0.8640747,0.4286499,-1.65625,2.109375,0.265625
144,1695730479965,-0.3798828,-0.8921509,0.43865967,1.125,0.75,-0.671875
145,1695730479995,-0.3996582,-0.8777466,0.41741943,-2.484375,0.359375,-0.171875
146,1695730480040,-0.4104004,-0.880188,0.42718506,-1.921875,0.84375,0.296875
147,1695730480085,-0.3869629,-0.87457275,0.4418335,0.03125,0.5,0.125
148,1695730480124,-0.40820312,-0.8779907,0.416687,-2.390625,1.546875,0.21875
149,1695730480160,-0.40844727,-0.8743286,0.41497803,-2.828125,0.53125,-0.46875
150,1695730480205,-0.3935547,-0.89434814,0.44696045,-0.96875,2.125,0.015625
151,1695730480235,-0.39916992,-0.8821411,0.434021,-2.515625,0.84375,0.609375
152,1695730480280,-0.40234375,-0.87628174,0.43328857,-1.375,0.640625,0.328125
153,1695730480310,-0.39257812,-0.878479,0.43450928,-2.875,1.46875,0.578125
154,1695730480356,-0.39916992,-0.86798096,0.44696045,-1.625,0.109375,0.859375
155,1695730480400,-0.3779297,-0.86602783,0.44158936,-3.171875,-0.078125,0.296875
156,1695730480430,-0.3947754,-0.8723755,0.44940186,-1.546875,-0.046875,-0.1875
157,1695730480475,-0.41137695,-0.8711548,0.44354248,-2.203125,-0.53125,1.171875
158,1695730480518,-0.40429688,-0.8687134,0.44744873,-1.921875,0.984375,1.359375
159,1695730480549,-0.37329102,-0.8555298,0.4569702,-2.28125,0.328125,1.140625
160,1695730480595,-0.38232422,-0.8567505,0.47601318,0.390625,-0.796875,0.125
161,1695730480623,-0.43823242,-0.8897095,0.45013428,0.15625,1.640625,1.0
162,1695730480672,-0.37231445,-0.8413696,0.44525146,2.546875,1.359375,-0.4375
163,1695730480717,-0.42333984,-0.89508057,0.45648193,2.3125,5.578125,-0.4375
164,1695730480746,-0.40942383,-0.86968994,0.44989014,3.09375,4.765625,0.265625
165,1695730480790,-0.42333984,-0.864563,0.44891357,1.46875,6.328125,-0.703125
166,1695730480849,-0.41186523,-0.8867798,0.4328003,3.59375,3.9375,1.0
167,1695730480865,-0.3701172,-0.85772705,0.43011475,1.734375,6.75,-0.953125
168,1695730480910,-0.40551758,-0.8726196,0.44940186,1.71875,3.8125,-1.640625
169,1695730480956,-0.39135742,-0.8772583,0.44085693,1.625,2.125,-0.078125
170,1695730480984,-0.37524414,-0.87579346,0.43328857,2.28125,2.40625,-0.3125
171,1695730481031,-0.3581543,-0.88360596,0.43841553,-0.96875,-1.21875,-1.140625
172,1695730481061,-0.40039062,-0.8862915,0.41937256,0.46875,-2.34375,-0.0625
173,1695730481109,-0.38891602,-0.8867798,0.4286499,-2.234375,-0.40625,0.90625
174,1695730481181,-0.3630371,-0.87091064,0.43597412,-2.6875,-1.84375,-0.515625
175,1695730481183,-0.37109375,-0.8699341,0.44989014,-1.140625,-4.375,-1.171875
176,1695730481226,-0.4104004,-0.89556885,0.43792725,-4.859375,-2.921875,-0.6875
177,1695730481270,-0.38916016,-0.85113525,0.4352417,-4.078125,-4.5625,0.484375
178,1695730481300,-0.39648438,-0.88067627,0.44818115,-3.4375,-6.203125,0.59375
179,1695730481343,-0.39648438,-0.86846924,0.4491577,-3.546875,-6.5,1.1875
180,1695730481374,-0.4140625,-0.850647,0.43792725,-4.53125,-7.359375,1.3125
181,1695730481419,-0.43701172,-0.8748169,0.4550171,-2.375,-4.703125,1.9375
182,1695730481465,-0.42407227,-0.8501587,0.4442749,-3.703125,-1.171875,1.71875
183,1695730481509,-0.4296875,-0.85601807,0.45111084,-3.140625,-1.90625,0.453125
184,1695730481539,-0.43066406,-0.8604126,0.4598999,-1.828125,-0.484375,1.203125
185,1695730481585,-0.4189453,-0.8596802,0.45526123,0.21875,2.3125,0.25
186,1695730481615,-0.41308594,-0.8543091,0.4303589,-4.140625,3.4375,-0.625
187,1695730481660,-0.40576172,-0.8604126,0.46429443,-0.3125,2.578125,-1.765625
188,1695730481689,-0.4350586,-0.85894775,0.46600342,-1.40625,3.203125,-0.71875
189,1695730481735,-0.42260742,-0.8596802,0.4413452,-2.0625,3.75,0.0625
190,1695730481781,-0.39135742,-0.8621216,0.45892334,-1.34375,2.6875,-0.734375
191,1695730481811,-0.39990234,-0.8718872,0.47235107,0.703125,2.265625,-1.109375
192,1695730481856,-0.4025879,-0.86309814,0.4442749,-1.40625,1.375,-0.4375
193,1695730481930,-0.39941406,-0.8526001,0.45257568,-1.03125,-0.421875,-1.125
194,1695730481933,-0.4140625,-0.86383057,0.47210693,0.046875,0.359375,0.109375
195,1695730481975,-0.40844727,-0.85650635,0.45477295,-0.28125,0.53125,0.625
196,1695730482006,-0.41186523,-0.8491821,0.4598999,-1.0,-0.671875,0.125
197,1695730482049,-0.41723633,-0.86016846,0.4616089,-0.671875,-0.9375,0.40625
198,1695730482095,-0.42749023,-0.86431885,0.46697998,-0.421875,0.5625,0.546875
199,1695730482125,-0.4086914,-0.84747314,0.45257568,-0.71875,0.484375,0.59375
200,1695730482171,-0.41479492,-0.8682251,0.46600342,-1.078125,-0.390625,0.078125
201,1695730482216,-0.4091797,-0.8587036,0.45794678,-1.453125,-0.328125,-0.265625
202,1695730482251,-0.41210938,-0.85601807,0.45941162,-1.84375,1.09375,-0.765625
203,1695730482291,-0.42285156,-0.8543091,0.46307373,-2.8125,-2.09375,-0.03125
204,1695730482320,-0.4506836,-0.8569946,0.479187,-1.078125,0.28125,0.640625
205,1695730482364,-0.43432617,-0.8545532,0.47406006,1.1875,3.5625,0.21875
206,1695730482408,-0.42504883,-0.8442993,0.4520874,-1.375,4.609375,0.0
207,1695730482439,-0.4086914,-0.85894775,0.4821167,1.828125,5.3125,-0.484375
208,1695730482484,-0.39160156,-0.84869385,0.48236084,2.53125,4.65625,-0.640625
209,1695730482529,-0.4345703,-0.87457275,0.46844482,2.09375,8.390625,-0.109375
210,1695730482560,-0.40283203,-0.8689575,0.44573975,0.359375,7.59375,1.59375
211,1695730482605,-0.37817383,-0.8562622,0.480896,4.546875,7.015625,2.15625
212,1695730482638,-0.39501953,-0.8731079,0.46087646,2.6875,6.3125,1.65625
213,1695730482679,-0.4008789,-0.8657837,0.4562378,2.890625,4.671875,2.375
214,1695730482726,-0.39941406,-0.86676025,0.46575928,5.953125,5.453125,2.109375
215,1695730482760,-0.38671875,-0.8648071,0.43719482,2.15625,2.59375,1.75
216,1695730482800,-0.37109375,-0.8748169,0.44891357,3.71875,3.4375,0.984375
217,1695730482845,-0.39624023,-0.87677,0.46087646,4.421875,3.8125,0.515625
218,1695730482877,-0.3894043,-0.87677,0.4454956,5.453125,6.34375,1.8125
219,1695730482919,-0.36523438,-0.8838501,0.43719482,4.34375,7.9375,1.53125
220,1695730482950,-0.35595703,-0.8887329,0.44329834,6.5625,6.984375,0.6875
221,1695730482998,-0.36328125,-0.8855591,0.4376831,5.046875,5.25,1.328125
222,1695730483040,-0.3737793,-0.90411377,0.43206787,4.078125,5.359375,1.546875
223,1695730483069,-0.34765625,-0.8899536,0.43377686,3.84375,5.28125,1.53125
224,1695730483115,-0.34643555,-0.8882446,0.4088745,-0.515625,3.359375,1.125
225,1695730483159,-0.34375,-0.9072876,0.44256592,0.1875,3.34375,0.609375
226,1695730483191,-0.32739258,-0.8916626,0.4022827,-4.828125,1.421875,1.875
227,1695730483237,-0.34692383,-0.90411377,0.43572998,-1.28125,0.6875,0.703125
228,1695730483265,-0.34814453,-0.8987427,0.4315796,1.4375,-2.015625,2.984375
229,1695730483310,-0.32836914,-0.8748169,0.4274292,-1.90625,-3.390625,1.3125
230,1695730483369,-0.35131836,-0.9133911,0.43206787,-0.859375,-2.40625,1.546875
231,1695730483385,-0.3503418,-0.8858032,0.4406128,-0.25,-1.890625,1.375
232,1695730483431,-0.35253906,-0.90216064,0.43597412,-1.703125,-1.0625,1.125
233,1695730483478,-0.33740234,-0.8936157,0.43670654,-2.0625,-0.671875,-0.0625
234,1695730483506,-0.35766602,-0.89141846,0.434021,-1.375,-0.875,0.3125
235,1695730483550,-0.35913086,-0.9026489,0.43597412,-1.796875,-0.15625,-0.046875
236,1695730483579,-0.3347168,-0.8867798,0.44476318,-0.828125,0.65625,0.8125
237,1695730483626,-0.34594727,-0.894104,0.43841553,-1.3125,0.6875,0.25
238,1695730483687,-0.3527832,-0.88482666,0.4376831,-1.390625,-0.265625,0.546875
239,1695730483699,-0.33789062,-0.88482666,0.44525146,-1.375,1.171875,-0.09375
240,1695730483746,-0.3515625,-0.89312744,0.44451904,-0.640625,1.03125,0.625
241,1695730483790,-0.3461914,-0.88604736,0.43914795,0.4375,0.203125,0.421875
242,1695730483819,-0.33935547,-0.8987427,0.44378662,-0.484375,1.296875,-0.71875
243,1695730483864,-0.34545898,-0.88775635,0.42889404,-2.484375,0.796875,-0.03125
244,1695730483895,-0.33984375,-0.8862915,0.44500732,1.140625,-0.03125,-0.8125
245,1695730483939,-0.34448242,-0.9011841,0.43182373,-2.15625,-0.203125,-0.75
246,1695730483999,-0.3618164,-0.89556885,0.43988037,-2.3125,1.53125,-2.03125
247,1695730484014,-0.3647461,-0.8928833,0.45037842,0.859375,3.09375,-0.390625
248,1695730484060,-0.34887695,-0.8796997,0.44256592,-0.15625,2.125,-0.265625
249,1695730484106,-0.3479004,-0.9038696,0.43499756,-0.390625,0.53125,-0.390625
250,1695730484134,-0.3322754,-0.89678955,0.45111084,-0.40625,1.1875,-0.75
251,1695730484179,-0.36157227,-0.90460205,0.4442749,-0.09375,1.015625,0.203125
252,1695730484210,-0.34423828,-0.8933716,0.434021,-1.0625,-0.25,-0.703125
253,1695730484255,-0.34375,-0.87750244,0.43548584,1.125,0.0625,0.171875
254,1695730484300,-0.35742188,-0.88775635,0.4418335,-0.46875,0.3125,-0.5625
255,1695730484330,-0.3474121,-0.8833618,0.4393921,0.140625,0.046875,-0.703125
256,1695730484375,-0.35107422,-0.8899536,0.43133545,-0.65625,-1.9375,-0.875
257,1695730484419,-0.3701172,-0.8899536,0.4364624,0.859375,-1.046875,-0.890625
258,1695730484450,-0.36083984,-0.8748169,0.42401123,-0.4375,-1.046875,-0.65625
259,1695730484495,-0.3540039,-0.9019165,0.43475342,0.59375,0.40625,-1.453125
260,1695730484528,-0.35961914,-0.8838501,0.42840576,-0.40625,-0.75,-1.125
261,1695730484569,-0.37451172,-0.88653564,0.43670654,0.75,-1.203125,-1.5625
262,1695730484615,-0.375,-0.8909302,0.42913818,-1.625,-0.046875,-0.71875
263,1695730484644,-0.35864258,-0.88653564,0.43865967,1.46875,-0.46875,-0.78125
264,1695730484690,-0.3635254,-0.88238525,0.4081421,-2.75,-1.03125,-1.125
265,1695730484735,-0.38745117,-0.8936157,0.43450928,-0.1875,0.984375,-1.4375
266,1695730484765,-0.37353516,-0.881897,0.42279053,-0.71875,-0.203125,-0.125
267,1695730484810,-0.36743164,-0.8796997,0.43450928,-0.25,-0.65625,-0.765625
268,1695730484855,-0.3894043,-0.8904419,0.4220581,-0.5,-0.140625,-0.765625
269,1695730484899,-0.3972168,-0.8936157,0.432312,0.796875,0.421875,-0.21875
270,1695730484930,-0.37939453,-0.87823486,0.42694092,0.375,-0.484375,0.828125
271,1695730484959,-0.3798828,-0.8765259,0.42132568,-0.125,-0.015625,-0.25
272,1695730485004,-0.39208984,-0.8899536,0.41571045,0.71875,0.3125,0.5
273,1695730485050,-0.38330078,-0.87506104,0.42132568,0.484375,0.078125,0.078125
274,1695730485081,-0.38085938,-0.88726807,0.41888428,-0.09375,0.015625,-0.75
275,1695730485125,-0.38476562,-0.8870239,0.41351318,-0.484375,-0.359375,-0.390625
276,1695730485170,-0.3815918,-0.8831177,0.4076538,-0.578125,-0.125,-0.71875
277,1695730485199,-0.39331055,-0.88238525,0.41131592,-0.5,-0.78125,-0.84375
278,1695730485245,-0.3930664,-0.88287354,0.42474365,0.703125,0.828125,0.078125
279,1695730485290,-0.39868164,-0.87677,0.41253662,-0.59375,1.34375,-0.34375
280,1695730485319,-0.3894043,-0.8899536,0.40985107,-1.09375,0.34375,-0.21875
281,1695730485365,-0.37768555,-0.88409424,0.42034912,0.59375,-0.984375,-0.734375
282,1695730485397,-0.3959961,-0.88287354,0.41497803,-0.609375,0.46875,-0.421875
283,1695730485439,-0.4099121,-0.8809204,0.39788818,-3.296875,0.984375,-0.515625
284,1695730485485,-0.3864746,-0.8882446,0.4232788,0.640625,1.4375,-0.484375
285,1695730485515,-0.40405273,-0.87701416,0.42010498,-0.515625,0.3125,0.171875
286,1695730485558,-0.3984375,-0.8880005,0.4142456,-0.796875,0.34375,-0.1875
287,1695730485590,-0.38110352,-0.88946533,0.42156982,-1.390625,0.171875,-0.484375
288,1695730485633,-0.39916992,-0.8921509,0.4196167,-0.3125,-0.015625,0.328125
289,1695730485682,-0.39819336,-0.88165283,0.4105835,-1.8125,-0.265625,0.40625
290,1695730485711,-0.39819336,-0.87677,0.42913818,-0.046875,0.84375,0.65625
291,1695730485757,-0.39013672,-0.8648071,0.4105835,-1.359375,0.21875,1.515625
292,1695730485832,-0.39916992,-0.87945557,0.41815186,0.234375,0.46875,0.21875
293,1695730485836,-0.3852539,-0.88067627,0.42767334,-0.734375,-0.375,0.4375
294,1695730485877,-0.39331055,-0.87677,0.41082764,-1.0625,-1.15625,0.59375
295,1695730485906,-0.39892578,-0.8867798,0.42596436,-0.71875,-0.59375,0.21875
296,1695730485950,-0.39257812,-0.88165283,0.42718506,0.359375,-0.578125,1.046875
297,1695730485995,-0.40234375,-0.87994385,0.41815186,-2.03125,2.4375,0.734375
298,1695730486028,-0.3972168,-0.9089966,0.40667725,-2.875,7.890625,-1.296875
299,1695730486070,-0.38671875,-0.86138916,0.42645264,-0.875,1.328125,1.953125
300,1695730486115,-0.39379883,-0.8545532,0.4393921,1.1875,2.53125,1.8125
301,1695730486145,-0.39892578,-0.89508057,0.42230225,-2.71875,0.515625,2.125
302,1695730486191,-0.37109375,-0.86968994,0.4315796,-0.59375,1.890625,0.765625
303,1695730486219,-0.38232422,-0.878479,0.44354248,0.234375,0.6875,0.84375
304,1695730486267,-0.39501953,-0.8945923,0.42303467,-1.234375,1.78125,1.453125
305,1695730486310,-0.3708496,-0.8789673,0.4328003,-0.875,1.578125,0.828125
306,1695730486339,-0.38012695,-0.8694458,0.42791748,0.015625,-0.4375,1.21875
307,1695730486389,-0.38183594,-0.9002075,0.43475342,-0.859375,1.34375,1.296875
308,1695730486430,-0.37329102,-0.88360596,0.4335327,-0.75,1.46875,0.0
309,1695730486459,-0.3815918,-0.8875122,0.43133545,-0.34375,0.296875,0.53125
310,1695730486505,-0.37963867,-0.8792114,0.42645264,-0.859375,0.28125,0.375
311,1695730486534,-0.38964844,-0.88287354,0.43865967,-0.671875,2.296875,-0.078125
312,1695730486580,-0.38256836,-0.88531494,0.43670654,-0.390625,2.6875,0.09375
313,1695730486626,-0.3696289,-0.8699341,0.43255615,0.28125,2.125,-0.71875
314,1695730486655,-0.3857422,-0.9002075,0.434021,-0.53125,2.21875,-1.0625
315,1695730486699,-0.36035156,-0.8838501,0.43743896,-0.390625,3.421875,-2.75
316,1695730486746,-0.3918457,-0.8731079,0.43255615,0.296875,0.65625,-1.46875
317,1695730486775,-0.37963867,-0.8743286,0.43719482,0.015625,1.65625,-1.671875
318,1695730486820,-0.37939453,-0.86920166,0.4376831,1.515625,3.375,-0.671875
319,1695730486849,-0.42089844,-0.8635864,0.4628296,5.703125,4.78125,-1.046875
320,1695730486895,-0.44067383,-0.8809204,0.43865967,2.90625,9.109375,1.21875
321,1695730486939,-0.40063477,-0.87677,0.41278076,5.0625,13.359375,-1.765625
322,1695730486970,-0.36010742,-0.8945923,0.4484253,7.40625,13.828125,-2.78125
323,1695730487015,-0.38964844,-0.87164307,0.44281006,8.265625,13.0625,-2.140625
324,1695730487059,-0.38500977,-0.87677,0.4171753,7.9375,17.234375,-2.625
325,1695730487089,-0.3552246,-0.88409424,0.4100952,9.109375,11.234375,-4.609375
326,1695730487137,-0.35913086,-0.9067993,0.4352417,10.390625,14.703125,-5.796875
327,1695730487165,-0.3852539,-0.895813,0.4130249,9.46875,13.328125,-4.828125
328,1695730487209,-0.3852539,-0.8945923,0.39105225,10.484375,17.140625,-6.96875
329,1695730487271,-0.37646484,-0.9170532,0.37005615,10.484375,17.75,-7.484375
330,1695730487285,-0.3725586,-0.91778564,0.37835693,10.125,17.671875,-7.734375
331,1695730487330,-0.37646484,-0.9182739,0.37542725,6.703125,20.140625,-8.9375
332,1695730487375,-0.38842773,-0.9043579,0.37005615,7.453125,18.890625,-10.421875
333,1695730487405,-0.37451172,-0.91656494,0.34613037,6.71875,15.453125,-8.625
334,1695730487450,-0.37036133,-0.88531494,0.37225342,7.0,15.59375,-7.609375
335,1695730487479,-0.3815918,-0.90826416,0.37908936,4.625,12.109375,-6.5625
336,1695730487525,-0.3876953,-0.89630127,0.36444092,1.796875,10.046875,-5.25
337,1695730487570,-0.39697266,-0.90411377,0.36151123,1.609375,7.625,-2.921875
338,1695730487599,-0.35375977,-0.91485596,0.37371826,2.203125,5.25,-2.0625
339,1695730487646,-0.3725586,-0.91290283,0.36346436,-1.140625,2.375,-1.1875
340,1695730487689,-0.3852539,-0.9143677,0.36639404,0.328125,1.53125,-0.34375
341,1695730487719,-0.38671875,-0.909729,0.37542725,1.078125,1.03125,0.484375
342,1695730487764,-0.40649414,-0.892395,0.37005615,-0.484375,-3.40625,2.5
343,1695730487810,-0.39672852,-0.9072876,0.35369873,0.65625,-3.859375,2.21875
344,1695730487838,-0.4008789,-0.9038696,0.36566162,-1.078125,-4.546875,2.828125
345,1695730487886,-0.40283203,-0.89263916,0.37200928,-1.609375,-5.140625,3.625
346,1695730487915,-0.3935547,-0.894104,0.34735107,-3.78125,-6.25,2.34375
347,1695730487960,-0.4104004,-0.90631104,0.36883545,-1.546875,-4.0,2.203125
348,1695730488005,-0.40063477,-0.897522,0.35028076,-4.375,-5.890625,1.890625
349,1695730488036,-0.38232422,-0.89678955,0.3727417,-2.828125,-7.671875,1.578125
350,1695730488079,-0.41870117,-0.91363525,0.37713623,-3.5,-7.203125,3.28125
351,1695730488109,-0.39672852,-0.8904419,0.35125732,-6.125,-6.09375,2.0625
352,1695730488155,-0.39501953,-0.8904419,0.36688232,-4.53125,-7.4375,1.765625
353,1695730488199,-0.4086914,-0.9011841,0.37713623,-5.625,-7.203125,2.484375
354,1695730488229,-0.4091797,-0.9055786,0.36810303,-5.6875,-5.390625,2.34375
355,1695730488275,-0.41601562,-0.88775635,0.35101318,-5.609375,-8.203125,1.875
356,1695730488321,-0.40844727,-0.9055786,0.37713623,-5.984375,-7.515625,1.140625
357,1695730488349,-0.421875,-0.8945923,0.36883545,-3.25,-8.109375,3.203125
358,1695730488393,-0.4255371,-0.8670044,0.35394287,-7.0625,-5.828125,2.34375
359,1695730488439,-0.41503906,-0.88775635,0.36883545,-7.546875,-6.0,1.671875
360,1695730488472,-0.42163086,-0.8965454,0.387146,-3.0625,-6.125,0.96875
361,1695730488521,-0.4152832,-0.8789673,0.3817749,-3.921875,-5.53125,1.046875
362,1695730488544,-0.41333008,-0.9006958,0.387146,-1.078125,-2.25,-0.84375
363,1695730488591,-0.40454102,-0.8735962,0.38983154,-0.234375,-3.15625,0.75
364,1695730488636,-0.42822266,-0.88287354,0.37860107,-1.328125,-1.53125,1.671875
365,1695730488667,-0.43115234,-0.89849854,0.38812256,-1.1875,-3.703125,0.90625
366,1695730488709,-0.38989258,-0.8760376,0.39300537,-0.875,-5.28125,2.703125
367,1695730488755,-0.453125,-0.90704346,0.38006592,-1.015625,-4.3125,5.4375
368,1695730488785,-0.3972168,-0.8760376,0.37591553,-0.703125,-4.171875,4.5625
369,1695730488829,-0.36254883,-0.8753052,0.39471436,-0.671875,-6.53125,5.125
370,1695730488861,-0.39819336,-0.90948486,0.3595581,-1.5,-5.484375,3.890625
371,1695730488904,-0.35253906,-0.87042236,0.38641357,1.828125,-5.875,3.4375
372,1695730488952,-0.3930664,-0.9273071,0.39569092,3.203125,-6.984375,4.84375
373,1695730488981,-0.3876953,-0.91485596,0.35003662,-0.234375,-7.234375,5.34375
374,1695730489026,-0.37548828,-0.8814087,0.34246826,1.96875,-8.0625,7.875
375,1695730489071,-0.41479492,-0.956604,0.37200928,-1.3125,-2.53125,7.046875
376,1695730489100,-0.33618164,-0.9065552,0.33685303,-4.921875,0.125,6.03125
377,1695730489146,-0.32885742,-0.90802,0.33758545,-3.03125,-3.203125,5.5625
378,1695730489222,-0.34594727,-0.93878174,0.35638428,-4.8125,-7.4375,6.59375
379,1695730489224,-0.34960938,-0.9248657,0.36566162,-5.515625,-8.484375,5.265625
380,1695730489279,-0.34838867,-0.9126587,0.36590576,-7.375,-7.796875,5.265625
381,1695730489295,-0.33422852,-0.90338135,0.3703003,-7.328125,-9.28125,5.578125
382,1695730489353,-0.3383789,-0.9077759,0.39056396,-7.171875,-8.921875,3.71875
383,1695730489386,-0.3635254,-0.91656494,0.38494873,-7.28125,-8.03125,3.21875
384,1695730489414,-0.3395996,-0.9036255,0.40130615,-5.171875,-4.0625,3.5625
385,1695730489461,-0.32617188,-0.90167236,0.41278076,-4.5625,-5.84375,1.859375
386,1695730489490,-0.375,-0.9143677,0.4105835,-6.015625,-6.15625,3.390625
387,1695730489534,-0.3503418,-0.8987427,0.4093628,-6.1875,-2.203125,3.484375
388,1695730489580,-0.3215332,-0.895813,0.41497803,-5.53125,-2.640625,4.640625
389,1695730489609,-0.32006836,-0.90826416,0.42694092,-4.921875,-4.015625,4.90625
390,1695730489655,-0.34155273,-0.89849854,0.44354248,-4.328125,-3.390625,3.765625
391,1695730489700,-0.34179688,-0.89434814,0.42034912,-6.921875,-3.5,3.21875
392,1695730489730,-0.30810547,-0.90167236,0.4569702,-1.5625,-1.9375,1.453125
393,1695730489775,-0.32666016,-0.89190674,0.4430542,-7.0,-2.78125,2.375
394,1695730489805,-0.36523438,-0.88238525,0.44500732,-3.6875,0.9375,-0.90625
395,1695730489849,-0.3449707,-0.89508057,0.46136475,-1.984375,3.296875,-0.140625
396,1695730489894,-0.31958008,-0.87701416,0.44891357,-2.90625,3.6875,-0.03125
397,1695730489925,-0.34326172,-0.89312744,0.45916748,-0.703125,5.09375,-1.53125
398,1695730489970,-0.35620117,-0.8814087,0.45965576,-0.0625,6.703125,-0.53125
399,1695730490016,-0.3232422,-0.8904419,0.4569702,-0.40625,8.859375,-2.421875
400,1695730490044,-0.30664062,-0.8838501,0.45526123,1.265625,8.171875,-3.71875
401,1695730490090,-0.3408203,-0.89263916,0.4508667,1.859375,10.265625,-4.09375
402,1695730490119,-0.3395996,-0.8921509,0.45843506,1.1875,8.03125,-5.59375
403,1695730490167,-0.32104492,-0.88067627,0.42816162,1.140625,7.09375,-5.96875
404,1695730490209,-0.34448242,-0.9006958,0.45526123,2.71875,8.5625,-7.15625
405,1695730490239,-0.36035156,-0.8911743,0.44256592,1.609375,6.046875,-7.34375
406,1695730490287,-0.35009766,-0.8821411,0.4472046,4.078125,7.078125,-6.40625
407,1695730490345,-0.37841797,-0.87677,0.43792725,2.296875,6.53125,-4.921875
408,1695730490359,-0.36083984,-0.9290161,0.39398193,-1.875,12.40625,-10.0
409,1695730490406,-0.33398438,-0.8765259,0.4406128,3.515625,9.625,-6.703125
410,1695730490437,-0.40820312,-0.8831177,0.42547607,1.828125,7.203125,-7.796875
411,1695730490480,-0.34399414,-0.8936157,0.42132568,1.15625,11.1875,-9.1875
412,1695730490525,-0.38354492,-0.8814087,0.4454956,0.375,6.65625,-6.015625
413,1695730490554,-0.3852539,-0.8740845,0.44354248,0.734375,6.046875,-6.328125
414,1695730490599,-0.37402344,-0.8809204,0.4491577,3.515625,5.21875,-6.828125
415,1695730490645,-0.4008789,-0.86553955,0.4298706,0.34375,2.78125,-4.25
416,1695730490676,-0.39111328,-0.85894775,0.44500732,2.328125,2.34375,-3.25
417,1695730490719,-0.40893555,-0.87677,0.45135498,2.140625,0.65625,-3.03125
418,1695730490749,-0.40405273,-0.85650635,0.4274292,2.484375,1.984375,-4.5
419,1695730490794,-0.4128418,-0.8591919,0.44403076,3.921875,0.640625,-2.96875
420,1695730490840,-0.42260742,-0.88116455,0.434021,3.140625,2.046875,-2.921875
421,1695730490870,-0.42211914,-0.84381104,0.418396,6.171875,1.46875,-3.203125
422,1695730490914,-0.44604492,-0.8796997,0.42303467,3.03125,2.296875,-1.40625
423,1695730490959,-0.4020996,-0.86553955,0.39227295,5.125,0.578125,-2.609375
424,1695730490989,-0.4428711,-0.87579346,0.42132568,6.0,-1.328125,-0.875
425,1695730491035,-0.4411621,-0.8748169,0.3949585,2.671875,1.015625,-0.4375
426,1695730491065,-0.42138672,-0.8845825,0.40252686,4.875,2.46875,-0.359375
427,1695730491110,-0.4638672,-0.87823486,0.38494873,3.8125,0.515625,0.6875
428,1695730491155,-0.43310547,-0.8718872,0.37542725,3.6875,1.8125,0.1875
429,1695730491186,-0.40673828,-0.8772583,0.38861084,1.859375,0.5,-0.328125
430,1695730491230,-0.47509766,-0.88897705,0.3678589,-0.578125,0.640625,-1.0625
431,1695730491275,-0.4506836,-0.87701416,0.37908936,1.25,3.203125,-1.171875
432,1695730491307,-0.4194336,-0.8814087,0.36419678,0.265625,-0.046875,-0.8125
433,1695730491350,-0.44604492,-0.8765259,0.3727417,0.6875,-1.703125,-1.078125
434,1695730491380,-0.47924805,-0.878479,0.37860107,-3.71875,1.40625,-2.0625
435,1695730491440,-0.42822266,-0.8726196,0.33319092,-2.28125,3.84375,-2.75
436,1695730491470,-0.42138672,-0.87213135,0.38323975,0.109375,2.046875,-1.09375
437,1695730491501,-0.47875977,-0.87213135,0.38763428,1.171875,-0.921875,0.421875
438,1695730491558,-0.46923828,-0.88482666,0.36224365,-0.46875,3.796875,-0.09375
439,1695730491589,-0.44726562,-0.8777466,0.36224365,4.75,2.265625,2.609375
440,1695730491620,-0.39697266,-0.8977661,0.38323975,3.5,0.390625,1.6875
441,1695730491666,-0.4333496,-0.9072876,0.36932373,0.546875,-0.203125,3.453125
442,1695730491694,-0.47021484,-0.87286377,0.3451538,2.40625,-0.078125,3.734375
443,1695730491740,-0.39892578,-0.880188,0.3685913,3.375,-3.15625,3.9375
444,1695730491801,-0.4013672,-0.90289307,0.3649292,1.734375,-3.953125,4.171875
445,1695730491815,-0.4494629,-0.880188,0.34906006,-0.875,-2.84375,3.796875
446,1695730491859,-0.42919922,-0.9026489,0.32122803,-1.515625,-6.140625,4.671875
447,1695730491906,-0.4033203,-0.9102173,0.36224365,3.0625,-4.1875,5.359375
448,1695730491936,-0.41796875,-0.9104614,0.3439331,-0.734375,-0.984375,5.9375
449,1695730491980,-0.42163086,-0.90704346,0.35198975,-0.03125,-1.15625,4.734375
450,1695730492025,-0.42382812,-0.90289307,0.3468628,0.984375,-3.21875,5.328125
451,1695730492055,-0.40356445,-0.911438,0.32122803,-4.171875,-0.5625,4.796875
452,1695730492100,-0.36621094,-0.9026489,0.32684326,-3.921875,-3.6875,4.59375
453,1695730492129,-0.36108398,-0.90582275,0.35101318,-3.421875,-6.9375,3.515625
454,1695730492175,-0.3815918,-0.9277954,0.34881592,-5.5625,-7.453125,4.609375
455,1695730492219,-0.3684082,-0.90875244,0.3444214,-5.265625,-6.265625,4.203125
456,1695730492251,-0.38476562,-0.9077759,0.35003662,-4.296875,-5.5,4.21875
457,1695730492294,-0.3774414,-0.9133911,0.3571167,-6.75,-4.484375,3.109375
458,1695730492342,-0.35205078,-0.90411377,0.3685913,-4.71875,-4.328125,2.859375
459,1695730492371,-0.36743164,-0.9116821,0.36639404,-5.0625,-5.828125,3.625
460,1695730492417,-0.35766602,-0.9221802,0.37176514,-4.515625,-5.578125,3.53125
461,1695730492444,-0.35107422,-0.90509033,0.38275146,-3.859375,-5.53125,4.140625
462,1695730492489,-0.3552246,-0.9048462,0.3768921,-3.421875,-5.71875,3.90625
463,1695730492533,-0.36694336,-0.9158325,0.37469482,-4.78125,-4.296875,4.484375
464,1695730492563,-0.36621094,-0.9204712,0.39178467,-2.546875,-3.828125,4.34375
465,1695730492608,-0.35229492,-0.89849854,0.4015503,-3.03125,-0.171875,4.953125
466,1695730492656,-0.34301758,-0.9089966,0.37713623,-3.921875,-2.125,4.703125
467,1695730492683,-0.31982422,-0.895813,0.39398193,-5.09375,-1.40625,3.109375
468,1695730492728,-0.3461914,-0.91119385,0.41912842,-1.46875,0.6875,3.578125
469,1695730492757,-0.35058594,-0.9038696,0.4052124,-1.328125,0.28125,3.125
470,1695730492804,-0.34228516,-0.89556885,0.3944702,-0.90625,0.921875,1.21875
471,1695730492849,-0.33374023,-0.91070557,0.40496826,-0.265625,2.25,0.359375
472,1695730492880,-0.3310547,-0.91778564,0.4039917,-1.1875,2.46875,0.703125
473,1695730492926,-0.3400879,-0.91900635,0.40301514,-0.390625,3.234375,-1.296875
474,1695730492971,-0.32226562,-0.8977661,0.40057373,0.734375,3.359375,-1.421875
475,1695730492999,-0.33789062,-0.909729,0.41815186,0.6875,1.484375,-2.609375
476,1695730493045,-0.3623047,-0.913147,0.39544678,-2.421875,1.46875,-2.59375
477,1695730493075,-0.34887695,-0.9048462,0.4076538,0.296875,4.09375,-3.703125
478,1695730493119,-0.33276367,-0.8936157,0.40496826,-1.375,3.171875,-3.90625
479,1695730493165,-0.36743164,-0.89556885,0.39764404,-2.125,2.390625,-4.78125
480,1695730493196,-0.36401367,-0.9077759,0.402771,-0.953125,4.921875,-5.109375
481,1695730493239,-0.3474121,-0.8953247,0.4093628,-1.15625,5.859375,-5.8125
482,1695730493315,-0.36938477,-0.90045166,0.40008545,-2.484375,3.390625,-5.53125
483,1695730493318,-0.36279297,-0.88946533,0.4179077,0.15625,3.828125,-5.671875
484,1695730493360,-0.375,-0.89923096,0.39813232,-2.359375,2.921875,-5.203125
485,1695730493405,-0.38354492,-0.87750244,0.3781128,-5.40625,-0.265625,-6.234375
486,1695730493442,-0.40039062,-0.9060669,0.43255615,-3.5625,-0.75,-6.4375
487,1695730493480,-0.4116211,-0.88287354,0.43206787,-4.609375,0.546875,-5.421875
488,1695730493509,-0.41430664,-0.8713989,0.4249878,-2.484375,1.46875,-5.484375
489,1695730493552,-0.40454102,-0.8599243,0.42059326,-2.171875,-0.84375,-4.53125
490,1695730493599,-0.43359375,-0.8674927,0.43499756,-0.15625,1.421875,-2.609375
491,1695730493629,-0.40844727,-0.8621216,0.42913818,0.21875,2.5,-2.28125
492,1695730493674,-0.4074707,-0.8635864,0.4328003,0.65625,3.3125,-3.125
493,1695730493706,-0.45117188,-0.86187744,0.41497803,1.375,0.953125,-2.4375
494,1695730493749,-0.421875,-0.8694458,0.43011475,1.3125,1.546875,-2.828125
495,1695730493795,-0.44433594,-0.86138916,0.4069214,0.25,1.375,-3.234375
496,1695730493828,-0.45117188,-0.8792114,0.4232788,0.234375,-0.125,-1.890625
497,1695730493869,-0.44848633,-0.86920166,0.42279053,1.453125,2.015625,-1.359375
498,1695730493915,-0.45239258,-0.84869385,0.4179077,0.765625,2.25,-1.15625
499,1695730493955,-0.43920898,-0.8557739,0.43011475,0.203125,2.859375,-0.578125
500,1695730493990,-0.46118164,-0.88116455,0.39935303,0.1875,0.65625,0.171875
501,1695730494019,-0.43676758,-0.8623657,0.4220581,1.171875,1.96875,-0.609375
502,1695730494063,-0.44433594,-0.8687134,0.41107178,1.203125,1.703125,-0.0625
503,1695730494110,-0.44604492,-0.85235596,0.4003296,-2.203125,0.5625,-0.421875
504,1695730494139,-0.45629883,-0.86431885,0.41156006,-1.484375,1.796875,-0.53125
505,1695730494184,-0.45141602,-0.86431885,0.4303589,-0.671875,1.015625,-0.3125
506,1695730494229,-0.44189453,-0.86431885,0.41619873,-2.71875,0.578125,-0.796875
507,1695730494260,-0.43188477,-0.85479736,0.42108154,-4.046875,1.09375,-1.40625
508,1695730494306,-0.4658203,-0.8670044,0.42889404,-0.859375,3.234375,-0.25
509,1695730494334,-0.45263672,-0.8599243,0.41912842,0.328125,3.4375,-0.234375
510,1695730494380,-0.4440918,-0.84576416,0.4389038,2.625,4.046875,1.40625
511,1695730494426,-0.46118164,-0.85894775,0.41815186,1.28125,3.078125,1.515625
512,1695730494454,-0.43139648,-0.85284424,0.4171753,3.125,1.9375,1.90625
513,1695730494500,-0.4423828,-0.8838501,0.43719482,5.84375,2.578125,1.59375
514,1695730494546,-0.45629883,-0.8701782,0.4003296,2.640625,0.765625,2.75
515,1695730494574,-0.42236328,-0.864563,0.40496826,5.5,2.171875,2.90625
516,1695730494620,-0.4326172,-0.88482666,0.4105835,5.015625,0.65625,3.125
517,1695730494649,-0.43164062,-0.8652954,0.38006592,1.828125,-0.046875,3.796875
518,1695730494693,-0.42114258,-0.8880005,0.40594482,3.390625,0.5,3.328125
519,1695730494742,-0.4177246,-0.88067627,0.38934326,3.140625,-0.078125,3.609375
520,1695730494771,-0.41430664,-0.88848877,0.3973999,4.734375,1.453125,3.421875
521,1695730494817,-0.4008789,-0.88409424,0.36688232,-0.546875,2.0,2.1875
522,1695730494859,-0.39697266,-0.8892212,0.385437,2.375,-0.25,3.03125
523,1695730494890,-0.39257812,-0.8960571,0.39300537,1.71875,1.625,2.984375
524,1695730494934,-0.3791504,-0.89556885,0.37176514,-1.125,1.421875,2.8125
525,1695730494965,-0.37304688,-0.8833618,0.37738037,-0.15625,-1.546875,2.578125
526,1695730495009,-0.37768555,-0.9006958,0.3829956,-1.265625,-2.921875,3.140625
527,1695730495054,-0.35229492,-0.88116455,0.3925171,-1.296875,-3.5625,2.21875
528,1695730495084,-0.39501953,-0.88946533,0.38616943,-0.890625,-4.1875,3.125
529,1695730495129,-0.3791504,-0.8838501,0.37713623,-1.1875,-4.328125,3.109375
530,1695730495175,-0.4074707,-0.89630127,0.39300537,-1.09375,-2.640625,4.25
531,1695730495205,-0.4152832,-0.91290283,0.37005615,-2.921875,0.96875,4.015625
532,1695730495250,-0.36791992,-0.895813,0.3727417,0.40625,1.265625,2.9375
533,1695730495280,-0.39501953,-0.92315674,0.3710327,-0.59375,1.984375,4.75
534,1695730495324,-0.39770508,-0.9026489,0.3776245,-1.015625,2.96875,3.140625
535,1695730495370,-0.36865234,-0.89923096,0.35736084,-0.671875,4.734375,1.8125
536,1695730495400,-0.35180664,-0.90826416,0.3805542,-1.5625,4.34375,2.546875
537,1695730495445,-0.36938477,-0.91729736,0.37469482,1.71875,3.5,1.578125
538,1695730495491,-0.3544922,-0.91778564,0.35882568,-0.34375,4.203125,1.140625
539,1695730495520,-0.32763672,-0.91241455,0.3661499,-0.734375,3.984375,-0.15625
540,1695730495565,-0.32421875,-0.93218994,0.3768921,1.015625,1.515625,0.296875
541,1695730495595,-0.3359375,-0.9221802,0.3834839,-0.546875,-1.0,1.53125
542,1695730495642,-0.33740234,-0.9182739,0.3685913,-0.671875,-2.71875,1.390625
543,1695730495701,-0.33544922,-0.9089966,0.36297607,-2.78125,-4.859375,3.296875
544,1695730495717,-0.32299805,-0.9277954,0.38983154,-3.734375,-8.875,3.578125
545,1695730495760,-0.3413086,-0.92510986,0.36956787,-4.4375,-10.765625,3.1875
546,1695730495805,-0.36645508,-0.9182739,0.3571167,-4.90625,-10.359375,4.296875
547,1695730495836,-0.34155273,-0.909729,0.3764038,-4.546875,-9.6875,2.25
548,1695730495879,-0.34448242,-0.9126587,0.3678589,-3.9375,-11.84375,2.015625
549,1695730495909,-0.34936523,-0.9014282,0.38153076,-4.5625,-12.015625,2.53125
550,1695730495955,-0.37670898,-0.8982544,0.3673706,-5.296875,-11.921875,2.546875
551,1695730496001,-0.37719727,-0.89923096,0.37786865,-3.703125,-10.828125,2.328125
552,1695730496030,-0.37060547,-0.89630127,0.3685913,-5.703125,-12.625,1.625
553,1695730496075,-0.37768555,-0.8936157,0.3847046,-2.421875,-11.765625,1.609375
554,1695730496120,-0.3918457,-0.89971924,0.38275146,-6.0625,-9.296875,1.265625
555,1695730496149,-0.37719727,-0.88653564,0.4088745,-0.140625,-5.5625,0.78125
556,1695730496195,-0.41381836,-0.895813,0.38885498,-6.265625,-3.140625,0.40625
557,1695730496240,-0.39282227,-0.89556885,0.38275146,-0.546875,-1.75,-3.03125
558,1695730496285,-0.36645508,-0.9019165,0.41278076,0.734375,-2.484375,-0.53125
559,1695730496314,-0.37646484,-0.9182739,0.41229248,-3.140625,-1.953125,1.890625
560,1695730496345,-0.32373047,-0.90753174,0.4303589,-1.265625,-0.59375,3.890625
561,1695730496390,-0.32299805,-0.90509033,0.42474365,-3.125,-0.40625,5.453125
562,1695730496437,-0.3334961,-0.9241333,0.44207764,-4.859375,-3.609375,3.953125
563,1695730496464,-0.36328125,-0.9006958,0.4286499,-7.0625,-4.921875,2.625
564,1695730496509,-0.3569336,-0.91485596,0.4459839,-3.65625,-1.390625,3.234375
565,1695730496555,-0.3696289,-0.8855591,0.4586792,-4.3125,1.609375,0.71875
566,1695730496587,-0.38061523,-0.8599243,0.44940186,-4.71875,2.140625,-0.9375
567,1695730496629,-0.37109375,-0.87286377,0.4508667,-3.296875,-0.046875,-1.125
568,1695730496660,-0.35473633,-0.86065674,0.45257568,-1.421875,1.296875,-1.6875
569,1695730496706,-0.34301758,-0.87457275,0.4628296,-1.171875,4.28125,-2.609375
570,1695730496750,-0.31835938,-0.9072876,0.480896,-2.734375,1.328125,-1.421875
571,1695730496780,-0.3166504,-0.9104614,0.4940796,-5.921875,0.53125,0.8125
572,1695730496825,-0.35546875,-0.8533325,0.51312256,1.75,4.421875,-1.234375
573,1695730496870,-0.4091797,-0.8965454,0.48162842,-0.796875,6.5625,-2.859375
574,1695730496899,-0.42016602,-0.91607666,0.41986084,-0.84375,8.625,-4.171875
575,1695730496947,-0.39135742,-0.90338135,0.42279053,3.0,10.8125,-6.09375
576,1695730496974,-0.33129883,-0.862854,0.46185303,4.828125,11.359375,-4.8125
577,1695730497020,-0.34326172,-0.8296509,0.47406006,3.3125,10.296875,-3.875
578,1695730497068,-0.33984375,-0.880188,0.45965576,-0.796875,9.4375,-2.65625
579,1695730497096,-0.39770508,-0.8875122,0.44891357,-0.5,9.828125,-1.5
580,1695730497140,-0.4428711,-0.8845825,0.39935303,5.640625,14.265625,-6.890625
581,1695730497218,-0.41992188,-0.85943604,0.40057373,5.1875,13.140625,-7.703125
582,1695730497221,-0.3310547,-0.83306885,0.43572998,5.640625,13.515625,-8.03125
583,1695730497261,-0.36083984,-0.86920166,0.43133545,3.71875,11.65625,-7.234375
584,1695730497289,-0.40966797,-0.9002075,0.42010498,3.5625,10.015625,-6.28125
585,1695730497334,-0.4013672,-0.8994751,0.4232788,5.53125,12.015625,-8.21875
586,1695730497380,-0.3864746,-0.8723755,0.42059326,7.1875,11.0625,-8.1875
587,1695730497410,-0.43115234,-0.87335205,0.42474365,5.03125,10.765625,-8.171875
588,1695730497455,-0.4501953,-0.8648071,0.40374756,7.046875,10.984375,-8.734375
589,1695730497500,-0.39892578,-0.8508911,0.4118042,6.546875,12.78125,-8.703125
590,1695730497530,-0.40429688,-0.8904419,0.43988037,9.328125,13.828125,-9.625
591,1695730497573,-0.45825195,-0.895813,0.38616943,7.875,15.15625,-7.265625
592,1695730497605,-0.41674805,-0.8521118,0.39154053,7.40625,14.921875,-7.515625
593,1695730497650,-0.42114258,-0.9026489,0.43426514,7.15625,13.453125,-6.875
594,1695730497695,-0.4333496,-0.8843384,0.40618896,6.6875,12.765625,-6.109375
595,1695730497725,-0.43286133,-0.8389282,0.39349365,4.625,12.140625,-5.171875
596,1695730497770,-0.45141602,-0.8735962,0.41351318,7.6875,10.25,-5.171875
597,1695730497818,-0.4362793,-0.89923096,0.40130615,6.328125,10.890625,-4.703125
598,1695730497847,-0.40454102,-0.8726196,0.3949585,6.640625,7.859375,-3.515625
599,1695730497889,-0.45507812,-0.8870239,0.38397217,5.0625,7.0,-3.75
600,1695730497918,-0.44335938,-0.8821411,0.3768921,4.34375,4.34375,-2.71875
601,1695730497966,-0.41967773,-0.8792114,0.37908936,3.390625,3.5625,-3.046875
602,1695730498009,-0.46289062,-0.8699341,0.3768921,4.25,4.28125,-2.703125
603,1695730498040,-0.46166992,-0.87701416,0.3751831,2.484375,4.53125,-1.609375
604,1695730498084,-0.42871094,-0.88604736,0.36273193,1.109375,3.15625,-1.140625
605,1695730498130,-0.43774414,-0.8648071,0.38079834,1.96875,2.109375,-2.46875
606,1695730498159,-0.46264648,-0.88067627,0.37371826,-0.328125,1.015625,-1.671875
607,1695730498205,-0.4543457,-0.88287354,0.37347412,0.734375,0.046875,-0.796875
608,1695730498237,-0.4440918,-0.8777466,0.35736084,-0.984375,0.109375,-0.1875
609,1695730498279,-0.46655273,-0.8701782,0.38104248,-1.140625,1.46875,-1.703125
610,1695730498325,-0.46679688,-0.86016846,0.37835693,-0.5625,-0.0625,0.484375
611,1695730498355,-0.453125,-0.86065674,0.3505249,-2.140625,-1.421875,-0.09375
612,1695730498399,-0.44726562,-0.88238525,0.3727417,-2.078125,-2.359375,-0.8125
613,1695730498446,-0.46899414,-0.8760376,0.3842163,-1.828125,-0.515625,-0.75
614,1695730498476,-0.46240234,-0.8731079,0.3866577,-1.734375,0.953125,0.0625
615,1695730498519,-0.44433594,-0.8599243,0.3751831,-3.890625,-0.046875,-0.046875
616,1695730498550,-0.4633789,-0.86920166,0.38128662,-2.046875,-0.65625,0.265625
617,1695730498595,-0.45092773,-0.8718872,0.39422607,-2.59375,-1.375,0.15625
618,1695730498639,-0.44750977,-0.8652954,0.39422607,-3.09375,-2.0,1.0
619,1695730498670,-0.46777344,-0.86383057,0.37957764,-3.640625,-5.046875,1.78125
620,1695730498717,-0.46704102,-0.87335205,0.4093628,-3.140625,-3.453125,2.59375
621,1695730498759,-0.47314453,-0.8772583,0.3847046,-5.546875,-0.625,2.125
622,1695730498789,-0.4267578,-0.850647,0.41351318,-2.921875,-0.9375,3.015625
623,1695730498835,-0.45629883,-0.86553955,0.40472412,-4.359375,-2.84375,2.046875
624,1695730498866,-0.43920898,-0.8521118,0.38934326,-2.9375,-3.09375,2.4375
625,1695730498908,-0.44750977,-0.8518677,0.40716553,-4.40625,-4.734375,1.0
626,1695730498955,-0.48486328,-0.8689575,0.4274292,-3.84375,-3.109375,1.21875
627,1695730498984,-0.4716797,-0.84161377,0.4220581,-3.109375,1.765625,1.484375
628,1695730499028,-0.4716797,-0.86309814,0.40740967,-2.6875,3.5,0.828125
629,1695730499075,-0.4255371,-0.848938,0.41448975,-3.03125,2.515625,0.75
630,1695730499105,-0.43017578,-0.8501587,0.4315796,0.21875,2.03125,0.03125
631,1695730499150,-0.44873047,-0.8533325,0.4208374,0.203125,-1.421875,0.375
632,1695730499180,-0.44189453,-0.8550415,0.4208374,-1.28125,-0.890625,0.296875
633,1695730499226,-0.45410156,-0.8657837,0.43255615,0.0,-0.984375,0.25
634,1695730499269,-0.4482422,-0.85894775,0.4274292,1.21875,-0.359375,1.421875
635,1695730499300,-0.43676758,-0.84869385,0.4220581,0.09375,-1.578125,1.59375
636,1695730499345,-0.45214844,-0.86260986,0.4179077,0.75,-1.796875,1.734375
637,1695730499390,-0.4350586,-0.85235596,0.4039917,0.875,-2.34375,2.328125
638,1695730499420,-0.45141602,-0.86602783,0.42303467,-0.015625,-1.375,1.9375
639,1695730499466,-0.4465332,-0.87677,0.40594482,-0.96875,-1.03125,2.828125
640,1695730499496,-0.41552734,-0.85821533,0.4064331,-2.53125,-1.203125,2.015625
641,1695730499540,-0.43017578,-0.88165283,0.42425537,1.21875,-1.671875,1.40625
642,1695730499590,-0.45117188,-0.8621216,0.39398193,-4.921875,0.40625,0.4375
643,1695730499615,-0.44140625,-0.85650635,0.42034912,-1.890625,0.1875,0.0
644,1695730499660,-0.42797852,-0.87042236,0.42034912,-2.703125,-0.34375,0.578125
645,1695730499705,-0.44458008,-0.864563,0.41131592,-2.375,0.25,-0.25
646,1695730499735,-0.44677734,-0.8477173,0.41864014,-3.25,0.34375,-0.1875
647,1695730499780,-0.44726562,-0.86968994,0.4381714,-1.484375,0.234375,0.453125
648,1695730499833,-0.42407227,-0.848938,0.41131592,-2.5,-0.5,0.25
649,1695730499853,-0.43408203,-0.8555298,0.4257202,-2.5,-0.84375,-1.25
650,1695730499900,-0.46801758,-0.8674927,0.44525146,-1.390625,1.5625,0.703125
651,1695730499931,-0.45214844,-0.84869385,0.42523193,-2.578125,3.375,1.1875
652,1695730499974,-0.4267578,-0.84454346,0.4418335,-0.109375,3.296875,0.09375
653,1695730500022,-0.47021484,-0.8670044,0.44622803,-5.5,0.625,1.1875
654,1695730500049,-0.44458008,-0.8406372,0.43572998,-0.796875,1.859375,1.359375
655,1695730500094,-0.4338379,-0.8753052,0.44647217,-1.109375,4.484375,0.296875
656,1695730500139,-0.43798828,-0.87213135,0.43182373,-0.5,3.3125,0.015625
657,1695730500169,-0.41577148,-0.84991455,0.44232178,2.90625,2.0625,-0.0625
658,1695730500216,-0.41357422,-0.8670044,0.43548584,0.4375,-2.75,-1.296875
659,1695730500245,-0.48657227,-0.8538208,0.42474365,-1.65625,0.53125,-1.0
660,1695730500289,-0.44482422,-0.8591919,0.44256592,-2.53125,5.640625,-0.484375
661,1695730500334,-0.4038086,-0.8274536,0.46722412,2.453125,2.3125,-1.234375
662,1695730500365,-0.4868164,-0.87750244,0.40570068,-1.703125,1.625,0.828125
663,1695730500411,-0.4169922,-0.8569946,0.43988037,1.046875,3.015625,-0.078125
664,1695730500458,-0.3876953,-0.84942627,0.4545288,0.21875,-1.84375,-0.84375
665,1695730500485,-0.45239258,-0.8706665,0.42889404,-1.03125,-3.3125,0.140625
666,1695730500530,-0.4387207,-0.84625244,0.44696045,-2.5,0.0625,-0.203125
667,1695730500606,-0.43408203,-0.8484497,0.44818115,-2.71875,-5.265625,0.640625
668,1695730500609,-0.45141602,-0.8521118,0.44451904,-2.171875,-3.890625,1.203125
669,1695730500649,-0.45263672,-0.8496704,0.44085693,-3.78125,-1.953125,1.203125
670,1695730500678,-0.43579102,-0.8394165,0.4418335,-1.921875,-4.53125,1.125
671,1695730500725,-0.44311523,-0.8464966,0.43548584,-0.203125,-5.046875,0.875
672,1695730500769,-0.47485352,-0.8543091,0.42962646,-1.84375,-3.140625,0.953125
673,1695730500799,-0.45532227,-0.8518677,0.4310913,-1.109375,-2.421875,0.328125
674,1695730500845,-0.43798828,-0.8484497,0.42547607,-1.203125,-2.1875,-0.59375
675,1695730500873,-0.4663086,-0.8447876,0.46063232,3.875,-0.6875,-1.109375
676,1695730500919,-0.49169922,-0.87628174,0.40325928,-3.203125,1.4375,-0.953125
677,1695730500963,-0.44433594,-0.8411255,0.43499756,-0.171875,2.484375,-2.171875
678,1695730500996,-0.44921875,-0.8550415,0.4418335,0.3125,1.859375,-1.734375
679,1695730501039,-0.4699707,-0.84698486,0.42474365,-0.96875,0.09375,-1.234375
680,1695730501085,-0.4621582,-0.850647,0.44158936,-0.5,0.96875,-2.0625
681,1695730501115,-0.45581055,-0.85357666,0.42840576,0.953125,0.859375,-2.125
682,1695730501159,-0.45629883,-0.85357666,0.4274292,-0.328125,0.984375,-1.671875
683,1695730501189,-0.46704102,-0.83795166,0.44647217,1.1875,-0.0625,-1.71875
684,1695730501235,-0.49926758,-0.85406494,0.42718506,-1.234375,1.1875,-0.546875
685,1695730501295,-0.48095703,-0.84161377,0.42840576,0.46875,2.703125,-0.515625
686,1695730501310,-0.4567871,-0.84820557,0.43597412,-1.421875,1.1875,-0.359375
687,1695730501355,-0.45581055,-0.84503174,0.434021,-1.53125,0.828125,-0.296875
688,1695730501400,-0.46606445,-0.83599854,0.43670654,-0.546875,-1.21875,0.234375
689,1695730501430,-0.49169922,-0.8464966,0.44281006,-1.453125,-2.4375,0.828125
690,1695730501474,-0.484375,-0.83966064,0.43255615,-1.375,-0.1875,1.34375
691,1695730501506,-0.47460938,-0.8335571,0.42596436,-1.265625,0.671875,0.984375
692,1695730501550,-0.46264648,-0.85040283,0.44281006,-1.53125,-0.1875,0.765625
693,1695730501594,-0.46850586,-0.8369751,0.45404053,0.5625,0.546875,-0.375
694,1695730501625,-0.49658203,-0.8418579,0.4237671,-3.140625,1.3125,-0.25
695,1695730501670,-0.47973633,-0.8296509,0.43304443,-2.90625,1.953125,-1.796875
696,1695730501715,-0.47094727,-0.8369751,0.45672607,0.34375,0.21875,-0.328125
697,1695730501745,-0.4729004,-0.82281494,0.43182373,-2.421875,-0.1875,-0.71875
698,1695730501789,-0.48999023,-0.8308716,0.4418335,-1.5,-1.125,-1.25
699,1695730501821,-0.49853516,-0.85113525,0.43597412,-1.671875,2.015625,-0.890625
700,1695730501865,-0.4489746,-0.8062134,0.45550537,0.015625,-0.484375,-0.875
701,1695730501910,-0.48901367,-0.83477783,0.4467163,-0.703125,-0.28125,-1.171875
702,1695730501940,-0.51416016,-0.8399048,0.43011475,-1.9375,0.5,0.1875
703,1695730501988,-0.46728516,-0.8233032,0.4401245,-0.453125,0.03125,-0.234375
704,1695730502029,-0.48510742,-0.83477783,0.4467163,-1.109375,-0.359375,-0.015625
705,1695730502060,-0.47851562,-0.8274536,0.44622803,-1.3125,0.0625,-0.265625
706,1695730502105,-0.47216797,-0.815979,0.44818115,-0.421875,-1.0,-0.65625
707,1695730502136,-0.49682617,-0.8377075,0.4393921,-1.484375,-2.609375,0.359375
708,1695730502180,-0.4934082,-0.8206177,0.44403076,-1.65625,-1.734375,0.171875
709,1695730502228,-0.48876953,-0.8208618,0.43695068,-0.625,-1.484375,0.078125
710,1695730502256,-0.5324707,-0.831604,0.43182373,-1.046875,0.46875,0.375
711,1695730502303,-0.4753418,-0.83258057,0.4459839,-0.6875,2.640625,-0.546875
712,1695730502344,-0.4633789,-0.8233032,0.44500732,1.90625,0.015625,-0.3125
713,1695730502375,-0.49829102,-0.8406372,0.41204834,-2.15625,1.140625,-0.734375
714,1695730502420,-0.5048828,-0.8250122,0.45404053,-0.875,0.90625,-0.71875
715,1695730502450,-0.5046387,-0.8257446,0.4491577,-0.390625,-0.203125,1.015625
716,1695730502494,-0.48754883,-0.81915283,0.4352417,-1.4375,1.578125,0.515625
717,1695730502540,-0.5151367,-0.8206177,0.43988037,-2.734375,1.03125,0.375
718,1695730502571,-0.50097656,-0.8323364,0.45281982,-0.828125,0.796875,1.0625
719,1695730502613,-0.49951172,-0.81695557,0.44451904,-0.90625,2.71875,0.40625
720,1695730502659,-0.5019531,-0.8296509,0.44207764,-0.671875,3.796875,0.515625
721,1695730502690,-0.47509766,-0.81451416,0.44891357,-1.25,2.921875,0.578125
722,1695730502737,-0.5058594,-0.8262329,0.46380615,-0.546875,3.296875,0.3125
723,1695730502765,-0.5012207,-0.82354736,0.44354248,-2.25,3.890625,0.328125
724,1695730502810,-0.45776367,-0.829895,0.4557495,-0.828125,3.703125,-0.140625
725,1695730502855,-0.46728516,-0.8389282,0.45257568,-0.359375,0.921875,-0.8125
726,1695730502885,-0.4885254,-0.8284302,0.46990967,-0.28125,2.109375,-0.71875
727,1695730502930,-0.48632812,-0.81451416,0.46697998,0.421875,1.1875,-0.15625
728,1695730502975,-0.49829102,-0.83258057,0.4508667,1.0625,3.28125,0.734375
729,1695730503005,-0.48266602,-0.8279419,0.4611206,1.25,6.125,0.71875
730,1695730503049,-0.4567871,-0.82647705,0.46453857,1.25,2.046875,0.890625
731,1695730503080,-0.47753906,-0.83306885,0.4623413,3.78125,1.0,1.75
732,1695730503125,-0.46948242,-0.8328247,0.45550537,-0.703125,0.8125,2.03125
733,1695730503169,-0.48388672,-0.82403564,0.46185303,1.546875,-2.03125,2.6875
734,1695730503200,-0.4765625,-0.8323364,0.45648193,1.25,-1.5,3.421875
735,1695730503246,-0.49121094,-0.84088135,0.42962646,-0.75,1.46875,3.25
736,1695730503289,-0.46118164,-0.8320923,0.44378662,1.3125,-0.375,2.625
737,1695730503319,-0.47070312,-0.84869385,0.44647217,1.140625,-0.046875,2.796875
738,1695730503365,-0.46777344,-0.84942627,0.42791748,1.6875,0.59375,2.3125
739,1695730503395,-0.44799805,-0.8477173,0.44891357,2.53125,2.765625,1.796875
740,1695730503439,-0.46777344,-0.8484497,0.43548584,4.671875,-1.375,2.5625
741,1695730503485,-0.4711914,-0.8267212,0.42913818,4.234375,2.359375,2.484375
742,1695730503515,-0.4777832,-0.8567505,0.43133545,3.578125,2.53125,3.8125
743,1695730503560,-0.4128418,-0.87091064,0.4244995,2.09375,1.28125,3.03125
744,1695730503606,-0.42456055,-0.8460083,0.41693115,2.296875,0.5,2.46875
745,1695730503637,-0.47021484,-0.8804321,0.4179077,3.15625,-2.03125,3.640625
746,1695730503678,-0.44995117,-0.8723755,0.4430542,2.5,2.65625,3.15625
747,1695730503723,-0.4326172,-0.8357544,0.40203857,1.796875,3.46875,3.625
748,1695730503753,-0.43017578,-0.8933716,0.38909912,-0.25,0.859375,5.1875
749,1695730503799,-0.41088867,-0.8870239,0.42425537,1.421875,2.5625,2.015625
750,1695730503829,-0.41674805,-0.862854,0.3908081,-2.140625,1.875,2.28125
751,1695730503875,-0.42358398,-0.8833618,0.42474365,-1.609375,1.9375,2.265625
752,1695730503920,-0.42114258,-0.897522,0.41497803,-1.59375,4.09375,2.0
753,1695730503949,-0.37573242,-0.85772705,0.3932495,-1.328125,0.34375,1.609375
754,1695730503996,-0.4074707,-0.8706665,0.42645264,-0.59375,-0.265625,1.453125
755,1695730504040,-0.43017578,-0.8760376,0.41741943,-2.015625,0.09375,1.4375
756,1695730504069,-0.4140625,-0.86968994,0.42816162,0.25,-0.46875,1.578125
757,1695730504114,-0.40649414,-0.87164307,0.41864014,-1.625,2.71875,0.328125
758,1695730504144,-0.38452148,-0.87042236,0.40838623,-0.703125,1.875,0.46875
759,1695730504190,-0.41845703,-0.8911743,0.43572998,-1.078125,0.859375,-0.3125
