# Sensor type: Respeck
# Activity type: Running
# Activity subtype: Normal
# Subject id: s1862623
# Notes: 
timestamp,accel_x,accel_y,accel_z,gyro_x,gyro_y,gyro_z
1695814147239,1.4438477,0.84710693,-0.520813,49.1875,78.0625,37.15625
1695814147278,1.999939,-0.46905518,-0.4541626,56.046875,77.046875,4.765625
1695814147323,1.6203613,-0.6519165,-0.5256958,-36.59375,5.609375,20.515625
1695814147361,1.7373047,-0.27545166,-0.61602783,-33.578125,9.53125,8.46875
1695814147399,1.4882812,-0.1194458,-0.33721924,-70.609375,-26.21875,14.078125
1695814147437,1.1879883,0.11859131,0.08465576,-57.890625,-30.640625,3.40625
1695814147474,0.36206055,0.054382324,-0.28692627,-62.390625,-62.78125,-11.28125
1695814147512,-0.5336914,0.3595581,-0.42608643,-9.828125,-66.5,10.9375
1695814147562,-0.62939453,0.14837646,-0.12554932,25.5625,-36.03125,18.171875
1695814147599,0.088378906,0.16668701,-0.18902588,51.859375,-23.234375,4.25
1695814147638,0.8215332,0.63323975,-0.29742432,96.859375,25.921875,2.46875
1695814147674,1.999939,-0.093811035,-0.1519165,47.0625,22.6875,51.109375
1695814147712,1.999939,-0.43780518,-0.33477783,-23.8125,-23.609375,-1.484375
1695814147762,1.2944336,-0.04058838,-0.039123535,6.25,24.734375,-56.34375
1695814147799,1.5725098,0.4274292,0.15203857,-4.578125,-16.359375,-8.46875
1695814147837,0.5004883,-0.02911377,-0.08013916,9.5625,-23.71875,2.75
1695814147875,-1.1262207,-0.65289307,-0.34429932,3.265625,-40.96875,-26.703125
1695814147912,-0.08081055,0.3078003,-0.05328369,19.8125,3.484375,-39.09375
1695814147949,0.26000977,0.13690186,0.109558105,-10.546875,9.453125,-9.859375
1695814148000,0.70214844,-0.059387207,-1.0437622,49.4375,14.640625,19.25
1695814148036,1.999939,1.3388062,-1.3452759,28.890625,111.96875,90.9375
1695814148075,1.999939,-1.0457153,-0.17755127,68.09375,0.515625,8.96875
1695814148114,1.1503906,-1.0977173,-0.8665161,-60.28125,3.984375,4.78125
1695814148152,0.94506836,0.25238037,-0.4151001,-65.921875,-12.109375,7.46875
1695814148188,1.2895508,0.7572632,0.3973999,-53.765625,-32.609375,17.546875
1695814148238,0.22363281,0.277771,-0.690979,-54.328125,-55.359375,4.828125
1695814148275,-0.39526367,-0.055236816,-0.20635986,-21.265625,-49.265625,3.0625
1695814148313,-1.0070801,0.14276123,-0.16998291,47.53125,-54.671875,16.25
1695814148351,-0.20214844,0.27142334,-0.48516846,45.765625,53.640625,19.171875
1695814148388,1.1970215,0.39520264,-0.34576416,109.65625,58.984375,-7.21875
1695814148425,1.3928223,-0.4216919,0.15496826,-40.265625,30.21875,44.546875
1695814148476,1.802002,-0.40142822,-0.51934814,28.671875,-33.4375,-30.390625
1695814148513,1.015625,0.027038574,0.18865967,38.453125,15.984375,-53.875
1695814148551,1.4421387,0.152771,0.16497803,-17.25,-26.265625,1.1875
1695814148588,0.25317383,-0.07550049,-0.26348877,2.328125,-53.078125,-12.0
1695814148626,-2.0,-0.536438,-0.47052002,-46.125,-19.03125,-18.15625
1695814148726,0.09375,0.15203857,0.016296387,33.03125,15.5,-25.90625
1695814148728,0.3713379,-0.050354004,-0.569397,16.546875,51.875,5.484375
1695814148750,1.999939,-0.97540283,-1.9356079,6.703125,53.953125,38.296875
1695814148788,1.999939,-0.13580322,-0.31500244,50.421875,-37.765625,46.953125
1695814148824,1.8635254,-0.5120239,-0.48980713,-42.203125,26.859375,18.984375
1695814148862,1.1845703,-0.44976807,-0.08380127,-74.171875,-28.03125,8.578125
1695814148900,0.92944336,-3.0517578E-4,-0.050598145,-73.3125,-38.515625,8.265625
1695814148950,0.30859375,0.1774292,-0.40509033,-50.9375,-43.78125,8.4375
1695814148989,-0.30639648,0.31951904,-0.32281494,-5.171875,-26.46875,-30.21875
1695814149034,-0.8359375,0.59954834,-0.03643799,36.796875,-69.046875,24.578125
1695814149063,-0.23510742,0.24481201,0.09588623,6.09375,9.734375,43.890625
1695814149100,0.16748047,-0.10675049,-0.6668091,76.78125,25.84375,-1.8125
1695814149138,1.999939,1.6566772,1.5846558,219.82812,104.0,0.390625
1695814149200,1.623291,0.4557495,-0.4414673,-45.71875,-6.96875,2.03125
1695814149224,1.8049316,-0.6292114,-0.13116455,49.265625,53.75,-41.5625
1695814149265,1.2595215,-0.043273926,0.1593628,4.421875,-24.640625,-15.75
1695814149300,0.62475586,0.21282959,-0.19976807,-25.5,-58.609375,-17.296875
1695814149339,-0.77563477,-0.003967285,-0.16558838,17.96875,-31.28125,-25.5625
1695814149376,-1.0185547,0.07244873,0.090270996,-10.9375,20.765625,-4.21875
1695814149425,0.18115234,-0.07354736,0.19451904,11.984375,25.6875,-19.3125
1695814149474,0.41430664,-0.3904419,-0.986145,-16.40625,65.3125,14.921875
1695814149499,1.999939,-0.8579712,-0.65411377,106.828125,-16.09375,43.84375
1695814149537,1.8774414,0.4303589,-0.0049438477,-0.96875,-30.71875,27.703125
1695814149576,1.5410156,-1.052063,-0.27618408,-42.5625,42.671875,50.5625
1695814149612,0.6635742,-0.7156372,-0.17755127,-113.6875,-40.78125,-9.265625
1695814149665,0.6203613,0.1293335,-0.3352661,-32.5625,-36.34375,-18.8125
1695814149716,0.39770508,0.82562256,-0.26885986,-8.09375,-40.953125,19.328125
1695814149750,-0.4152832,1.4721069,-0.09942627,1.859375,-29.578125,31.890625
1695814149776,-0.73779297,-0.19146729,-0.003967285,-33.734375,5.109375,41.203125
1695814149814,-0.015380859,-0.4727173,-0.64263916,92.96875,3.421875,12.25
1695814149850,1.999939,-0.3562622,1.2733765,62.640625,-113.8125,-167.39062
1695814149901,0.97387695,0.43499756,-0.24346924,-42.515625,-29.171875,-3.890625
1695814149938,1.999939,-0.8989868,-0.3670044,41.5625,18.796875,-49.5625
1695814149976,1.1120605,0.2501831,0.13983154,29.21875,-25.578125,-36.359375
1695814150013,0.93896484,0.34368896,0.073913574,-13.875,-38.796875,1.90625
1695814150050,-0.40649414,-0.08355713,-0.2883911,49.875,-23.515625,-28.65625
1695814150089,-2.0,-0.24273682,0.0446167,-53.625,5.8125,-9.421875
1695814150138,0.24291992,-0.012023926,0.018981934,25.84375,22.875,-33.671875
1695814150176,0.38378906,-0.07550049,-0.17584229,-10.578125,48.859375,6.3125
1695814150214,1.999939,-0.17730713,-2.0,14.96875,-13.390625,41.640625
1695814150250,1.9941406,0.32733154,-0.11260986,11.921875,-39.078125,31.171875
1695814150291,1.9414062,-0.86016846,-0.49273682,-10.421875,39.125,17.828125
1695814150325,1.2243652,-0.8303833,0.1005249,-97.28125,-26.90625,15.375
1695814150375,0.71069336,-0.12213135,-0.17779541,-18.09375,-18.21875,-11.515625
1695814150412,0.26513672,0.5717163,-0.46905518,-72.90625,-22.453125,21.03125
1695814150451,-0.22192383,0.99749756,-0.09234619,15.59375,-50.5625,2.96875
1695814150488,-0.73999023,0.4977417,-0.047180176,6.4375,-53.015625,36.25
1695814150536,-0.2331543,-0.53253174,-0.45977783,50.15625,0.328125,15.640625
1695814150562,1.1286621,-0.64385986,-0.8569946,113.78125,71.984375,-22.578125
1695814150612,1.293457,0.57489014,0.054138184,-69.140625,-3.4375,25.125
1695814150650,1.6713867,-0.55133057,-0.24005127,62.25,3.84375,-50.421875
1695814150700,1.3815918,-0.011779785,0.26434326,22.0,-11.578125,-33.796875
1695814150726,0.9152832,-0.0068969727,-0.06060791,5.40625,-41.640625,21.03125
1695814150764,-0.013427734,-0.33184814,-0.30377197,5.5,-18.4375,-28.3125
1695814150800,-1.4375,-0.37652588,-0.08795166,-45.171875,-10.359375,-37.390625
1695814150852,-0.18847656,0.4069214,0.34051514,-8.421875,36.3125,-16.0625
1695814150890,0.04321289,0.10736084,-0.79278564,17.84375,60.484375,22.234375
1695814150927,1.999939,-2.0,-2.0,-135.95312,-73.75,52.328125
1695814150964,1.6240234,-0.5767212,0.027282715,24.328125,-41.234375,16.09375
1695814151000,1.5773926,-0.9246216,-0.3106079,-62.3125,12.53125,25.375
1695814151050,1.2724609,-0.26202393,-0.09893799,-42.765625,-32.109375,-11.109375
1695814151089,0.6672363,0.10345459,-0.17462158,-60.59375,-16.28125,3.78125
1695814151125,0.17993164,0.39520264,-0.38946533,-71.15625,-32.203125,26.671875
1695814151163,-0.38208008,0.5668335,-0.20953369,5.421875,-42.875,-26.359375
1695814151200,-0.83081055,0.6203003,-0.045959473,34.765625,-39.875,35.3125
1695814151238,-0.024169922,0.039245605,-0.21466064,20.34375,-13.59375,38.78125
1695814151288,1.2145996,-0.5274048,-2.0,95.65625,95.03125,-35.625
1695814151338,1.9082031,-0.047424316,0.35369873,-32.265625,37.921875,38.109375
1695814151363,1.7790527,-0.46148682,-0.47442627,52.5625,-18.046875,-25.875
1695814151415,1.3820801,-0.027893066,0.16595459,53.390625,21.078125,-36.125
1695814151438,0.9748535,-0.02520752,0.11590576,-24.71875,-50.0625,7.09375
1695814151490,-0.10668945,0.20037842,-0.33477783,31.546875,-52.53125,-28.34375
1695814151566,-1.4643555,-0.44781494,-0.16485596,-44.28125,-0.25,-7.3125
1695814151570,-0.1262207,-0.010559082,-0.11090088,22.046875,20.3125,-22.078125
1695814151599,0.123291016,-0.07867432,-0.3970337,15.1875,43.71875,-0.390625
1695814151637,1.2521973,-0.054260254,-1.1860962,50.203125,105.671875,55.8125
1695814151676,1.999939,0.307312,-0.09576416,36.90625,-7.390625,32.890625
1695814151714,1.999939,-0.31500244,-0.67071533,-57.28125,35.046875,3.640625
1695814151763,1.4099121,-0.3057251,0.29388428,-84.3125,-8.953125,41.6875
1695814151799,0.79248047,-0.19171143,-0.20172119,-28.921875,-37.046875,20.671875
1695814151838,0.13354492,0.08514404,-0.5003052,-50.046875,-44.46875,-1.4375
1695814151875,-0.4699707,0.38446045,-0.31451416,6.8125,-42.796875,-30.921875
1695814151912,-0.6164551,1.007019,0.039001465,36.3125,-58.25,34.265625
1695814151950,-0.02734375,0.04437256,-0.09454346,-11.484375,1.515625,45.046875
1695814152040,0.5644531,-0.21124268,-0.7041626,144.15625,61.5625,-26.328125
1695814152044,1.999939,0.03338623,-0.09112549,-2.546875,100.15625,45.90625
1695814152077,1.5686035,-0.31378174,-0.19195557,-2.171875,-27.09375,-18.765625
1695814152126,1.467041,-0.64801025,-0.02178955,44.25,35.875,-43.9375
1695814152151,1.190918,0.05609131,0.37445068,14.546875,-30.625,11.828125
1695814152188,0.1928711,0.25506592,-0.4199829,8.109375,-41.546875,-21.921875
1695814152238,-1.2783203,-0.3838501,-0.36993408,-21.625,-13.09375,-17.5
1695814152276,-0.21191406,0.07611084,0.07977295,14.84375,27.875,-26.109375
1695814152313,0.32885742,-7.9345703E-4,0.055603027,-14.34375,41.984375,-20.328125
1695814152349,0.7375488,0.246521,-1.06427,71.15625,60.15625,22.171875
1695814152387,1.999939,1.4213257,0.26019287,-35.203125,70.1875,44.765625
1695814152438,1.999939,-1.0535278,-1.0696411,-65.015625,-35.140625,11.28125
1695814152476,1.0720215,-0.72735596,0.117126465,-113.796875,6.9375,22.734375
1695814152525,0.78564453,-0.22149658,-0.2625122,-47.234375,-36.890625,6.875
1695814152549,0.5046387,-0.030578613,-0.4360962,-60.25,-31.0625,9.3125
1695814152600,-0.23242188,0.5692749,-0.43023682,-10.328125,-33.984375,0.75
1695814152624,-0.50805664,1.2040405,0.26141357,25.796875,-44.046875,4.875
1695814152676,-0.35131836,-0.025939941,-0.005432129,-6.375,-15.984375,34.359375
1695814152714,0.08081055,-0.3977661,-1.0518188,113.453125,29.5,3.3125
1695814152751,1.999939,-1.2527466,1.999939,-2.6875,-113.0,-154.65625
1695814152798,0.6904297,0.43499756,-0.33599854,-48.484375,-3.5,-8.671875
1695814152824,1.999939,-1.4207153,-0.35577393,51.96875,13.828125,-36.765625
1695814152862,1.0866699,0.18475342,0.1293335,39.140625,-22.4375,-37.21875
1695814152899,0.89990234,0.29656982,0.08709717,-10.125,-50.84375,15.671875
1695814152949,-0.26879883,-0.03326416,-0.14898682,24.265625,-29.078125,-22.90625
1695814152990,-1.9536133,-0.4944458,-0.30645752,-59.53125,-2.5,-26.84375
1695814153025,0.12841797,0.15838623,0.113708496,4.046875,24.0,-19.5
1695814153063,0.48242188,0.38201904,-0.8804321,55.640625,70.765625,31.5625
1695814153100,1.999939,1.7015991,0.80511475,-40.234375,153.3125,48.96875
1695814153137,1.59375,-0.6018677,-0.3267212,-104.6875,-1.734375,-8.328125
1695814153187,1.2907715,-0.60406494,-0.09503174,-63.515625,15.828125,49.71875
1695814153225,1.0227051,-0.5479126,-0.093322754,-61.203125,-21.9375,2.296875
1695814153263,0.642334,-0.08331299,-0.5064087,-81.28125,-21.71875,3.765625
1695814153302,0.013183594,0.52996826,-0.20440674,-50.671875,-12.296875,6.265625
1695814153338,-0.5983887,0.91278076,-0.035949707,41.78125,-46.296875,-19.96875
1695814153374,-0.5983887,0.4725952,-0.37921143,21.1875,-18.15625,53.6875
1695814153426,0.31469727,-0.11138916,-0.9060669,75.984375,70.328125,24.140625
1695814153463,1.999939,0.8151245,1.836853,177.875,94.84375,-22.84375
1695814153513,0.95043945,0.5336304,-0.2727661,-57.5625,-36.609375,1.921875
1695814153536,1.4812012,-0.99053955,-0.3526001,68.234375,31.5,-40.0
1695814153574,1.0983887,0.24871826,0.18157959,30.21875,-20.84375,-24.140625
1695814153613,0.8833008,-0.29351807,-0.07110596,-4.625,-44.78125,2.34375
1695814153663,-0.58569336,-0.18682861,-0.18292236,13.421875,-28.640625,-26.453125
1695814153699,-1.7788086,0.5194702,-0.0022583008,-37.71875,14.65625,-33.515625
1695814153737,0.1772461,-0.010314941,0.2662964,-11.765625,39.0625,-5.015625
1695814153776,0.9296875,-0.093566895,-0.8640747,30.078125,21.234375,40.15625
1695814153813,1.999939,1.6835327,0.20941162,-31.875,69.5,72.171875
1695814153851,1.999939,-0.4282837,0.09100342,-139.26562,-10.296875,11.84375
1695814153901,0.9279785,-0.7263794,-0.3916626,-33.484375,4.0,19.53125
1695814153938,0.8220215,-0.4829712,-0.24273682,-57.53125,-23.734375,-7.59375
1695814153975,0.73779297,0.27459717,-0.21905518,-46.359375,-16.75,12.125
1695814154014,0.075927734,0.59002686,-0.3579712,-47.578125,-35.625,11.25
1695814154051,-0.53344727,0.99993896,-0.057922363,37.09375,-52.203125,-2.703125
1695814154090,-0.8781738,-0.11846924,-0.010559082,-23.9375,-14.0625,42.875
1695814154138,0.07006836,-0.51153564,-0.3982544,111.453125,15.0,-3.0625
1695814154188,1.999939,-1.753479,-2.0,-57.953125,-63.90625,-81.21875
1695814154213,1.3085938,0.94744873,-0.050109863,-96.0,0.390625,15.015625
1695814154250,1.999939,-1.2959595,-0.75323486,72.953125,20.5625,-44.5625
1695814154289,1.2502441,0.07904053,0.21234131,43.046875,-49.0,-16.828125
1695814154327,0.79296875,0.14129639,-0.018127441,0.109375,-53.6875,24.640625
1695814154375,-0.11450195,-0.14434814,-0.39215088,20.640625,-23.140625,-29.65625
1695814154412,-1.3862305,-0.74346924,-0.2432251,-48.6875,16.859375,-48.21875
1695814154450,-0.21191406,0.3114624,0.10467529,0.59375,2.546875,-19.4375
1695814154488,0.18334961,0.72039795,-0.4595337,61.765625,73.8125,25.25
1695814154526,1.999939,0.05316162,-0.28936768,-36.046875,118.03125,17.203125
1695814154576,1.197998,-1.1096802,-0.6104126,-62.640625,-6.90625,-10.65625
1695814154613,1.5783691,-0.09869385,-0.090148926,-63.5625,9.390625,28.96875
1695814154651,1.0009766,0.11029053,0.1329956,-35.96875,-27.421875,4.234375
1695814154691,0.60839844,-0.1182251,-0.22003174,-60.96875,-34.5,21.71875
1695814154725,0.01171875,-0.06451416,-0.46392822,-34.265625,-19.609375,-6.640625
1695814154764,-0.34594727,0.6412964,-0.04888916,15.828125,-45.421875,-26.96875
1695814154812,-0.6750488,0.87713623,-0.01373291,46.796875,-43.890625,47.78125
1695814154852,0.0769043,0.08856201,-0.11505127,17.765625,-12.046875,42.40625
1695814154889,1.999939,-2.0,-2.0,-48.75,-75.640625,-185.15625
1695814154926,1.3308105,0.4142456,0.28582764,-61.984375,5.3125,18.78125
1695814154963,1.9311523,-1.065979,-0.59381104,34.6875,9.125,-20.734375
1695814155000,0.8725586,0.043151855,-0.013000488,24.75,-7.5625,-22.40625
1695814155051,0.80322266,0.21624756,0.020202637,-10.21875,-36.6875,3.296875
1695814155090,-0.25097656,-0.11383057,-0.33721924,19.984375,-37.28125,-20.390625
1695814155127,-1.6567383,-0.22320557,-0.2041626,-50.25,9.5625,-14.671875
1695814155163,-0.036621094,0.07684326,0.1437378,8.578125,29.09375,-32.53125
1695814155200,0.32128906,0.16937256,-0.7334595,32.25,56.46875,10.078125
1695814155241,1.999939,-0.22198486,0.36029053,78.0625,193.59375,41.921875
1695814155326,1.4489746,-0.36383057,-0.6123657,-103.765625,-29.328125,2.484375
1695814155328,1.5,-0.4981079,-0.3760376,-39.96875,18.671875,9.125
1695814155362,1.0996094,-0.45318604,-0.014465332,-42.390625,-31.890625,13.25
1695814155402,0.763916,-0.116760254,-0.16412354,-96.5625,-37.75,31.328125
1695814155440,-0.115722656,0.2098999,-0.5610962,-7.0625,-54.28125,-12.421875
1695814155476,-0.9719238,1.2108765,0.08734131,68.765625,-41.234375,-31.40625
1695814155526,-0.35473633,0.2929077,-0.19024658,-10.09375,-8.96875,43.546875
1695814155565,0.23291016,-0.05718994,-0.9373169,69.359375,39.390625,31.203125
1695814155602,1.999939,1.5575562,1.512146,197.53125,114.265625,14.828125
1695814155637,1.2878418,0.18377686,-0.29278564,-69.375,-5.9375,1.703125
1695814155675,1.4223633,-0.74346924,-0.411438,49.5625,30.953125,-42.46875
1695814155726,0.96899414,0.36566162,0.38616943,28.875,-11.5625,-6.90625
1695814155776,1.0407715,-0.06695557,-0.07232666,-0.453125,-39.5,-3.609375
1695814155804,-0.46801758,-0.28546143,-0.2871704,12.1875,-27.0625,-31.296875
1695814155838,-1.807373,0.11444092,-0.09429932,-63.265625,6.375,-5.5625
1695814155875,0.008300781,0.10638428,-0.105285645,8.421875,16.125,-18.5625
1695814155913,0.3190918,-0.12359619,-0.9546509,49.796875,104.671875,16.25
1695814155952,1.999939,1.8502808,0.574646,-0.875,19.703125,111.390625
1695814156000,1.6914062,-0.5054321,-0.41656494,-91.703125,2.453125,-27.796875
1695814156039,1.5786133,-0.27667236,0.08685303,-84.875,10.859375,37.546875
1695814156074,1.0126953,-0.2727661,-0.26031494,-54.125,-38.65625,10.703125
1695814156113,0.3010254,-0.19659424,-0.48712158,-87.765625,-16.828125,16.453125
1695814156149,-0.22851562,0.31048584,-0.32061768,-51.234375,-21.671875,-14.984375
1695814156188,-0.67749023,0.89398193,-0.013977051,72.578125,-45.625,9.53125
1695814156238,-0.4140625,0.5223999,-0.043029785,-32.984375,-12.84375,77.703125
1695814156275,0.21313477,0.015563965,-1.4138794,163.85938,71.5625,-6.15625
1695814156313,1.999939,1.999939,1.2338257,181.71875,154.21875,87.640625
1695814156350,1.5168457,0.67596436,-0.5132446,-42.328125,-4.921875,23.1875
1695814156389,1.4360352,-1.331604,-0.17388916,69.09375,43.0,-64.234375
1695814156426,0.904541,0.11077881,0.2423706,3.203125,-5.671875,-15.859375
1695814156490,0.8288574,0.25653076,-0.11114502,2.984375,-50.71875,5.4375
1695814156513,-0.5053711,-0.097229004,-0.1560669,29.6875,-15.125,-30.578125
1695814156550,-1.4699707,-0.059387207,0.014587402,-32.953125,11.125,-15.40625
1695814156588,0.11425781,0.070495605,0.1918335,-1.484375,15.453125,-36.90625
1695814156626,0.5422363,-0.22515869,-1.1885376,17.140625,43.0625,17.234375
1695814156664,1.999939,-0.46588135,0.28704834,48.21875,200.40625,23.671875
1695814156713,1.999939,-0.08892822,0.21209717,-107.875,-50.296875,15.078125
1695814156750,1.0410156,-0.989563,-0.44805908,-16.140625,10.828125,29.046875
1695814156789,0.6970215,-0.71343994,-0.112854004,-89.90625,-13.15625,8.890625
1695814156837,0.5571289,0.042175293,-0.4192505,-33.78125,-12.375,-2.546875
1695814156863,0.38232422,0.5319214,-0.3147583,-47.578125,-27.765625,5.734375
1695814156900,-0.26879883,1.7977905,0.1984253,62.453125,-64.171875,-11.296875
1695814156949,-0.8510742,-0.11480713,-0.3718872,-7.703125,4.328125,36.328125
1695814156989,0.15820312,-0.442688,-0.90802,103.78125,28.703125,12.296875
1695814157026,1.999939,-0.8530884,1.999939,136.64062,194.76562,-57.390625
1695814157065,1.2426758,0.5661011,-0.43951416,-59.546875,-0.671875,-12.8125
1695814157099,1.5222168,-0.8648071,-0.5252075,60.765625,35.828125,-41.4375
1695814157138,0.6647949,0.17889404,0.18157959,24.5,-17.3125,-15.359375
1695814157187,1.0998535,0.465271,0.08026123,-13.203125,-37.234375,10.96875
1695814157225,-0.08276367,-0.069885254,-0.31793213,17.8125,-41.234375,-14.15625
1695814157263,-1.8862305,-0.3945923,-0.061340332,-47.65625,13.171875,-30.421875
1695814157300,-0.04736328,0.050476074,0.061950684,28.90625,31.421875,-15.3125
1695814157339,0.8063965,0.16790771,-0.98028564,85.875,32.9375,31.34375
1695814157375,1.999939,1.8844604,0.4015503,-59.46875,37.1875,55.90625
1695814157438,1.999939,-0.894104,-0.68707275,-85.78125,-0.328125,2.125
1695814157464,1.2490234,-0.32647705,-0.011047363,-73.984375,-1.828125,12.984375
1695814157513,1.1032715,0.015563965,-0.13189697,-21.9375,-61.515625,11.34375
1695814157536,0.4777832,0.085876465,-0.108947754,-98.390625,-12.453125,25.234375
1695814157576,-0.21435547,0.24798584,-0.3977661,-3.015625,-29.578125,-9.859375
1695814157613,-0.9494629,0.8563843,0.016052246,69.09375,-25.375,-8.34375
1695814157663,-0.23852539,0.2838745,-0.26715088,-4.3125,-33.265625,53.671875
1695814157699,0.51953125,0.074157715,-1.3799438,143.78125,62.265625,11.5
1695814157737,1.999939,0.88446045,0.8930054,19.46875,11.671875,69.953125
1695814157776,1.8603516,0.05291748,-0.28936768,-41.0625,-0.578125,-3.84375
1695814157815,1.3034668,-0.831604,-0.08526611,55.21875,32.84375,-59.109375
1695814157863,0.93725586,0.37908936,0.24871826,15.59375,-11.203125,-20.84375
1695814157900,0.8918457,0.07659912,0.027770996,-10.015625,-50.265625,9.484375
1695814157939,-0.9313965,-0.6248169,-0.534729,7.4375,-17.515625,-29.75
1695814157976,-0.7470703,0.39031982,0.26190186,-26.6875,19.5625,-26.734375
1695814158015,0.24584961,0.053649902,0.09246826,-16.109375,22.046875,-18.171875
1695814158052,0.5209961,0.19354248,-1.409729,58.78125,71.375,31.984375
1695814158101,1.999939,1.3815308,0.95477295,-41.6875,26.40625,90.96875
1695814158140,1.999939,-0.91290283,-0.83428955,-50.3125,-20.59375,-16.3125
1695814158176,0.8720703,-0.5198364,0.109802246,-129.9375,20.515625,41.171875
1695814158213,0.798584,-0.101135254,-0.20269775,-47.015625,-42.625,-7.9375
1695814158263,0.5266113,0.06317139,-0.33795166,-57.453125,-12.109375,8.78125
1695814158305,0.022460938,0.76556396,-0.36236572,-3.5,-23.9375,1.40625
1695814158337,-0.51342773,0.97039795,0.17034912,6.1875,-28.75,-0.09375
1695814158376,-0.69921875,-0.093566895,-0.43511963,-0.46875,-5.90625,50.09375
1695814158414,0.34960938,-0.29937744,-1.0281372,146.01562,50.421875,-21.59375
1695814158462,1.999939,-0.1453247,0.34954834,8.0,114.203125,22.46875
1695814158492,1.2670898,0.26434326,-0.3587036,38.828125,-37.265625,-42.34375
1695814158525,1.3789062,-0.5108032,-0.034973145,18.40625,34.515625,-48.90625
1695814158575,0.7783203,0.082458496,0.2682495,20.5625,-32.765625,1.046875
1695814158615,0.5629883,-0.108947754,-0.30523682,-11.734375,-37.390625,1.203125
1695814158650,-0.6730957,-0.1104126,-0.4837036,-5.9375,-22.40625,-33.6875
1695814158687,-0.85546875,0.2814331,0.29071045,-20.875,27.078125,-10.1875
1695814158726,-0.05810547,-0.0025024414,-0.5496216,25.921875,27.25,-7.53125
1695814158762,1.999939,-0.35699463,-2.0,55.03125,60.5,74.84375
1695814158814,1.999939,-0.5171509,-0.24957275,66.703125,-68.234375,23.734375
1695814158850,1.4968262,-0.23052979,-0.3862915,-82.40625,24.109375,34.375
1695814158892,1.2080078,-0.23052979,0.14129639,-78.0,-23.953125,10.109375
1695814158926,0.857666,0.021911621,-0.24908447,-24.21875,-55.015625,0.734375
1695814158962,0.21801758,0.35760498,-0.29888916,-97.390625,-11.015625,14.484375
1695814159001,-0.45166016,0.29022217,-0.5186157,43.828125,-28.765625,-28.8125
1695814159052,-0.94677734,0.69940186,0.32073975,31.203125,-55.53125,38.171875
1695814159087,-0.15917969,0.07342529,-0.011779785,-27.359375,11.59375,58.71875
1695814159125,0.40698242,-0.30914307,-0.69537354,161.28125,40.359375,-44.078125
1695814159164,1.999939,1.5316772,0.5668335,50.40625,140.25,84.40625
1695814159200,0.9104004,0.32855225,-0.54815674,-18.671875,-10.015625,-30.96875
1695814159238,1.7158203,-1.6575317,0.027770996,50.65625,40.515625,-51.671875
1695814159288,0.8466797,0.18621826,0.15594482,-7.8125,-41.3125,-23.65625
1695814159326,0.54174805,0.5175171,-0.28009033,-18.03125,-60.03125,3.6875
1695814159361,-0.56396484,-0.2041626,-0.22296143,-1.96875,-29.953125,-8.875
1695814159400,-1.1259766,-0.014221191,0.22064209,-21.78125,41.65625,-40.515625
1695814159438,-0.13256836,0.010925293,-0.35992432,-17.984375,34.890625,-10.0
1695814159477,1.999939,-1.3823853,-2.0,9.03125,30.109375,62.296875
1695814159526,1.999939,0.2868042,0.22845459,46.046875,-17.984375,25.3125
1695814159564,1.4863281,-1.1018677,-0.16998291,-51.671875,27.5625,49.359375
1695814159600,0.5703125,-0.6057739,-0.43145752,-81.203125,-33.984375,18.03125
1695814159639,0.46289062,0.0211792,0.008972168,-35.4375,-33.90625,-1.75
1695814159676,0.4814453,0.7872925,-0.5569458,-27.703125,-28.9375,0.53125
1695814159713,-0.048095703,0.74090576,-0.033996582,-5.0625,-23.8125,-2.171875
1695814159763,-0.9091797,0.44232178,-0.1609497,16.578125,-43.828125,50.796875
1695814159802,-0.2097168,-0.4932251,-0.36846924,52.59375,4.328125,29.484375
1695814159841,1.999939,-0.7654419,-1.8804321,107.09375,27.609375,-62.03125
1695814159875,0.857666,0.57733154,-0.25054932,34.875,-10.8125,15.90625
1695814159914,1.999939,-0.57647705,-0.07745361,42.578125,-18.78125,-13.6875
1695814159951,0.6154785,-0.6968384,0.27923584,29.921875,0.046875,-28.46875
1695814160001,1.2695312,0.4179077,0.03656006,-27.203125,-35.125,16.78125
1695814160039,-0.044677734,0.10369873,-0.15704346,4.125,-21.96875,-4.125
1695814160077,-1.4069824,-0.77349854,-0.62213135,-92.25,-7.125,-23.359375
1695814160113,-0.38549805,-0.04449463,0.1942749,18.765625,30.28125,-38.984375
1695814160150,0.78222656,0.31903076,-0.59259033,25.1875,26.640625,1.390625
1695814160188,1.999939,0.45550537,0.63397217,16.21875,51.234375,71.328125
1695814160239,1.999939,-0.73028564,-0.8543091,-60.328125,-14.328125,-37.203125
1695814160276,0.83862305,0.08758545,0.21234131,-120.625,25.078125,40.40625
1695814160313,1.3391113,-0.24078369,-0.09869385,-32.390625,-54.171875,4.90625
1695814160350,0.48632812,-0.3213501,-0.4776001,-71.65625,-18.453125,-6.171875
1695814160388,-0.0637207,0.46820068,-0.2852173,-19.390625,-45.28125,-0.96875
1695814160425,-0.42993164,1.0175171,0.032409668,52.265625,-43.390625,-19.328125
1695814160500,-0.9082031,0.14837646,-0.1819458,-37.859375,-12.625,47.734375
1695814160530,0.05419922,-0.31549072,-0.9673462,130.125,76.703125,6.1875
1695814160549,1.999939,1.7492065,0.021911621,134.01562,61.015625,57.28125
1695814160589,1.5136719,0.070007324,0.01751709,-63.40625,-11.109375,4.5
1695814160650,1.6079102,-0.9915161,-0.32867432,72.1875,39.078125,-59.359375
1695814160666,1.2785645,0.37908936,0.32806396,-2.75,-32.34375,-4.21875
1695814160713,0.9577637,-0.023498535,-0.16973877,2.109375,-54.71875,13.78125
1695814160750,-0.7609863,-0.16607666,-0.34796143,15.234375,-24.828125,-43.9375
1695814160788,-1.6179199,0.22601318,0.12420654,-36.640625,31.765625,-12.0
1695814160825,0.023925781,0.06488037,0.19647217,-0.921875,23.46875,-2.390625
1695814160863,0.7973633,0.03265381,-1.1436157,57.90625,58.296875,35.109375
1695814160900,1.999939,1.8793335,0.2506714,40.953125,40.921875,52.4375
1695814160965,1.999939,-0.9031372,-0.3694458,-120.046875,-25.796875,5.375
1695814160988,0.845459,-0.6987915,-0.1104126,-93.78125,-20.90625,29.1875
1695814161027,0.65283203,0.04168701,0.0040893555,-48.75,-37.15625,0.921875
1695814161063,0.7138672,0.43255615,-0.18707275,-31.15625,-14.796875,-1.96875
1695814161101,-0.0036621094,0.23699951,-0.35772705,-19.65625,-12.421875,6.984375
1695814161150,-0.6779785,0.8812866,-0.0022583008,21.1875,-46.484375,16.078125
1695814161188,-0.58032227,-0.0071411133,-0.16412354,32.5625,-10.65625,48.296875
1695814161225,0.22631836,-0.26568604,-1.3887329,135.26562,79.140625,-7.703125
1695814161276,1.999939,1.999939,0.9750366,60.8125,67.71875,34.4375
1695814161301,1.7939453,0.38250732,-0.06866455,-50.921875,-45.8125,-4.1875
1695814161339,1.2666016,-1.2459106,-0.17584229,54.609375,21.71875,-62.984375
1695814161376,0.9572754,0.32659912,0.15594482,-8.53125,-20.1875,-8.828125
1695814161426,0.7890625,-0.016662598,0.008239746,0.078125,-65.859375,11.265625
1695814161465,-1.0195312,-0.17340088,-0.5432739,16.765625,-24.625,-36.453125
1695814161501,-0.6010742,0.42523193,0.31365967,7.515625,26.4375,-26.296875
1695814161538,0.17602539,-0.21173096,-0.089416504,22.6875,30.921875,-13.640625
1695814161576,1.0100098,-0.54644775,-2.0,45.9375,125.0625,41.28125
1695814161625,1.999939,0.62542725,1.1373901,-53.703125,26.734375,78.25
1695814161675,1.6647949,-0.6958618,-0.8609009,-28.359375,-20.015625,-1.546875
1695814161712,1.2036133,-0.19195557,0.08758545,-81.03125,-0.078125,33.421875
1695814161737,1.0734863,-0.22369385,-0.14923096,-40.140625,-33.34375,8.109375
1695814161776,0.48461914,-0.15411377,-0.46295166,-96.109375,-7.25,-1.671875
1695814161814,-0.24536133,0.37054443,-0.39361572,-8.359375,-51.46875,-12.390625
1695814161863,-0.7817383,1.3341675,0.25408936,51.796875,-43.1875,9.328125
1695814161900,-0.37231445,0.22528076,0.058044434,-32.59375,-12.25,61.03125
1695814161949,0.04345703,-0.08648682,-0.53985596,102.421875,41.640625,-6.921875
1695814161975,1.999939,0.6918335,1.999939,198.04688,271.20312,103.84375
1695814162012,1.1154785,1.2189331,-0.35601807,-1.921875,-9.65625,-44.546875
1695814162101,1.4694824,-0.79522705,-0.43023682,24.96875,12.171875,-26.453125
1695814162106,0.82128906,-0.20587158,0.30340576,24.953125,-29.34375,-1.796875
1695814162138,0.6430664,0.24310303,-0.034729004,-18.90625,-28.9375,-9.4375
1695814162175,-0.7216797,-0.3665161,-0.3867798,9.546875,-45.828125,-11.46875
1695814162212,-0.7939453,0.08441162,-0.12677002,-25.5625,44.96875,-33.8125
1695814162253,0.09887695,0.11224365,0.33221436,-28.859375,22.59375,-37.0625
1695814162287,0.7373047,0.22088623,-1.0696411,71.96875,53.75,19.96875
1695814162337,1.999939,1.1515503,0.7225952,-25.90625,64.921875,35.078125
1695814162388,1.999939,-1.4341431,-0.71417236,-73.0625,-32.4375,5.28125
1695814162412,0.6916504,-0.41680908,0.20062256,-78.0625,-6.96875,34.1875
1695814162449,0.9597168,-0.097961426,-0.13800049,-52.984375,-43.734375,-11.203125
1695814162489,0.80615234,0.010192871,-0.45220947,-69.171875,-14.90625,-1.109375
1695814162526,-0.16967773,0.53778076,-0.30914307,-50.484375,-39.015625,9.515625
1695814162576,-0.48291016,1.1412964,0.04876709,49.546875,-53.703125,14.703125
1695814162614,-0.61572266,-0.23321533,-0.21246338,-16.640625,-4.125,43.828125
1695814162650,0.18969727,-0.19976807,-0.9055786,125.828125,93.390625,-3.03125
1695814162687,1.999939,-0.4151001,0.5741577,132.76562,116.578125,20.40625
1695814162725,1.5871582,0.07537842,-0.5593872,-26.390625,-30.890625,-9.53125
1695814162761,1.201416,-0.6157837,-0.20977783,46.265625,25.375,-60.140625
1695814162813,1.2077637,0.35565186,0.4315796,30.71875,-27.15625,-7.328125
1695814162851,0.8527832,-0.2835083,-0.32183838,-20.078125,-79.75,5.28125
1695814162889,-1.0881348,-0.3850708,-0.49224854,-9.109375,-32.265625,-40.234375
1695814162926,-0.66625977,0.6383667,0.24749756,-12.015625,18.96875,-24.953125
1695814162961,0.19702148,0.0836792,0.2008667,2.484375,24.921875,-2.859375
1695814162999,0.5786133,-0.2053833,-1.1028442,24.15625,75.4375,27.578125
1695814163049,1.999939,1.0717163,0.09075928,-0.4375,104.53125,54.6875
1695814163092,1.999939,-0.9746704,-0.48150635,-73.390625,-24.953125,-3.84375
1695814163127,0.99487305,-0.6265259,-0.10015869,-89.4375,-0.03125,48.28125
1695814163164,0.5744629,-0.36065674,-0.21832275,-67.46875,-28.734375,-1.890625
1695814163200,0.7722168,0.34783936,-0.22149658,-42.6875,-11.4375,-0.4375
1695814163238,0.19067383,0.50286865,-0.52178955,-24.828125,-21.640625,-6.75
1695814163288,-0.21679688,1.0499878,0.12591553,-15.46875,-16.09375,5.578125
1695814163326,-0.9465332,0.1786499,-0.10748291,11.21875,-31.53125,75.640625
1695814163363,0.048583984,-0.38409424,-0.077941895,68.75,25.8125,20.046875
1695814163401,1.999939,-2.0,-2.0,15.359375,-164.78125,-194.21875
1695814163437,1.8830566,0.75164795,-0.09674072,-122.703125,-19.484375,-6.8125
1695814163477,1.4135742,-0.86602783,-0.7485962,27.671875,41.421875,-24.15625
1695814163543,0.60498047,-0.2966919,0.13641357,47.234375,-39.109375,-14.609375
1695814163564,0.69140625,0.2645874,-0.16851807,-27.59375,-25.96875,-1.6875
1695814163601,-0.31762695,0.041931152,-0.050598145,25.25,-21.8125,-18.28125
1695814163638,-1.046875,-0.39801025,-0.38824463,-71.390625,56.15625,-31.140625
1695814163676,-0.107421875,-0.07525635,0.2255249,-8.328125,30.796875,-10.5625
1695814163712,0.31420898,0.2929077,-0.7703247,78.453125,45.84375,21.65625
1695814163763,1.999939,0.21722412,0.28094482,-63.328125,130.10938,23.640625
1695814163804,1.999939,-1.322815,-1.0010376,-109.890625,-9.328125,-0.421875
1695814163848,0.80859375,-0.5371704,-0.28814697,-107.40625,9.0625,64.390625
1695814163877,1.052002,-0.26763916,-0.36968994,-56.4375,-52.640625,9.046875
1695814163913,0.21850586,0.2140503,-0.7527466,-34.078125,-34.09375,-3.5625
1695814163950,0.030029297,0.7091675,-0.2197876,-12.875,6.703125,10.953125
1695814164015,-0.13232422,1.1820679,0.32806396,19.8125,-42.828125,13.21875
1695814164041,-0.8054199,-0.09283447,-0.22149658,25.796875,-42.140625,46.015625
1695814164075,0.20996094,-0.4619751,-0.8831177,120.5,51.734375,-21.046875
1695814164113,1.999939,0.4298706,1.999939,154.26562,-26.421875,-131.54688
1695814164150,0.81518555,0.7172241,-0.8386841,-17.140625,-6.0,-7.859375
1695814164188,1.7109375,-1.232727,-0.10211182,51.1875,31.46875,-36.78125
1695814164238,0.5305176,0.025817871,0.08465576,25.90625,-41.75,-37.390625
1695814164275,0.7050781,0.513855,-0.35577393,3.234375,-50.40625,26.375
1695814164326,-0.23046875,-0.09869385,0.02923584,10.109375,-58.578125,-8.3125
1695814164350,-1.1591797,-0.3423462,-0.10626221,-33.171875,21.859375,-54.671875
1695814164388,-0.05883789,-0.062316895,0.22015381,-20.578125,22.421875,-24.234375
1695814164438,0.6044922,0.13641357,-1.09552,41.46875,70.40625,30.109375
1695814164491,1.999939,1.4577026,0.42816162,-2.6875,116.84375,78.234375
1695814164525,1.999939,-0.4661255,-0.5413208,-135.9375,-59.171875,30.40625
1695814164549,0.69628906,-0.91363525,-0.020568848,-76.34375,-8.875,26.765625
1695814164587,0.6208496,-0.3086548,-0.23150635,-80.765625,-43.375,-5.90625
1695814164626,0.6333008,0.32611084,-0.26080322,-27.6875,-22.953125,-9.59375
1695814164676,0.30004883,0.61395264,-0.27349854,-23.71875,-14.640625,4.484375
1695814164715,-0.36035156,0.8036499,-0.12017822,4.625,-22.6875,5.5625
1695814164750,-0.8100586,0.0993042,0.07537842,-10.59375,-24.296875,37.671875
1695814164788,-0.060546875,-0.19073486,-1.0491333,147.125,43.625,1.578125
1695814164824,1.999939,1.999939,1.999939,141.75,-0.25,-162.8125
1695814164876,1.4335938,-0.36138916,-0.5095825,-68.96875,-38.359375,6.953125
1695814164952,1.4287109,-0.89385986,-0.4277954,81.890625,33.703125,-55.8125
1695814164956,0.9814453,0.67352295,0.31365967,6.484375,-5.390625,-28.09375
1695814165000,0.8647461,-0.006164551,-0.10650635,-8.453125,-70.65625,14.5625
1695814165024,-0.69921875,-0.50445557,-0.55914307,45.890625,-20.609375,-18.703125
1695814165062,-1.0622559,0.46380615,0.28533936,-22.296875,-2.296875,-28.75
1695814165100,0.14794922,0.1005249,0.1786499,-0.6875,42.28125,-26.921875
1695814165150,0.43554688,-0.2925415,-0.8748169,5.265625,46.265625,19.140625
1695814165189,1.999939,0.14666748,0.24432373,43.046875,219.4375,62.921875
1695814165227,1.999939,-0.38287354,-0.09698486,-65.515625,-35.921875,-0.65625
1695814165277,1.0068359,-0.70513916,-0.34088135,-38.515625,3.453125,36.953125
1695814165300,0.6604004,-0.4541626,-0.1375122,-76.296875,-38.625,-4.34375
1695814165338,0.4892578,-0.18878174,-0.3201294,-21.140625,-12.203125,11.8125
1695814165427,0.31762695,0.72454834,-0.40167236,-21.828125,-10.421875,3.875
1695814165429,-0.2529297,1.2711792,-0.05303955,6.59375,-14.40625,-0.21875
1695814165463,-0.77368164,0.105407715,-0.08795166,-16.484375,-38.21875,67.484375
1695814165500,-0.103027344,-0.24273682,-0.1609497,97.234375,16.671875,8.890625
1695814165550,1.3754883,-1.1748657,-2.0,50.703125,30.875,-43.78125
1695814165577,1.3691406,1.2636108,0.39471436,17.0,-113.921875,-28.28125
1695814165627,1.999939,-1.1983032,-0.9890747,19.03125,3.640625,-9.5625
1695814165664,0.9958496,-0.6939087,0.0028686523,29.140625,16.578125,-37.578125
1695814165701,0.9038086,0.42181396,0.081970215,2.25,-27.21875,-2.421875
1695814165739,0.16821289,0.16595459,-0.13677979,3.890625,-45.296875,-5.21875
1695814165776,-0.9169922,-0.62042236,-0.4578247,-69.9375,-6.78125,-35.8125
1695814165812,-0.34399414,0.09222412,0.22406006,3.984375,8.5625,-35.84375
1695814165863,-0.118896484,0.20257568,-0.42242432,7.25,60.765625,-1.40625
1695814165901,1.999939,-0.23199463,-2.0,104.984375,34.71875,87.3125
1695814165937,1.999939,-0.9234009,0.32635498,12.828125,-69.453125,51.78125
1695814165975,1.2426758,-1.1543579,-0.38897705,-58.5,3.046875,32.921875
1695814166014,0.87646484,-0.2522583,-0.41583252,-69.078125,-43.0625,-31.4375
1695814166050,0.89746094,0.49432373,-0.26055908,-43.984375,-33.1875,-7.234375
1695814166101,0.6833496,0.7416382,-0.4043579,-35.734375,-14.09375,18.5625
1695814166139,-0.22729492,0.5272827,-0.040100098,-17.34375,-35.109375,-20.1875
1695814166176,-1.0009766,0.28997803,-0.05230713,-24.59375,-38.09375,42.171875
1695814166216,-0.5529785,-0.22296143,0.25286865,7.140625,0.6875,60.125
1695814166250,0.15063477,-0.222229,-0.65802,105.28125,97.359375,-44.59375
1695814166289,1.999939,0.6925659,0.77679443,172.64062,133.125,28.609375
1695814166350,1.3688965,0.76434326,-0.63604736,-45.171875,-22.140625,-58.484375
1695814166375,1.5114746,-1.1878052,-0.026672363,3.4375,16.828125,-25.28125
1695814166415,0.7314453,0.074157715,0.04559326,-8.0,-72.625,-2.03125
1695814166450,0.3786621,0.31903076,-0.31500244,-17.234375,-26.515625,12.8125
1695814166488,-0.5913086,-0.15460205,-0.11871338,-13.609375,-2.421875,-19.5
1695814166526,-0.81518555,-0.077941895,0.08294678,-27.0625,35.1875,-20.390625
1695814166588,0.041259766,0.023376465,-0.81256104,25.8125,45.515625,1.765625
1695814166612,1.999939,0.79071045,-2.0,127.28125,134.78125,174.70312
1695814166650,1.999939,-0.74176025,-0.058410645,69.046875,-38.90625,39.265625
1695814166688,1.104248,-0.7515259,-0.5286255,-90.734375,4.609375,8.765625
1695814166727,0.66967773,0.10467529,-0.09552002,-60.578125,-34.421875,14.703125
1695814166763,0.65893555,-0.09625244,-0.37921143,-43.515625,-22.78125,14.765625
1695814166812,0.20776367,0.7609253,-0.37823486,-59.296875,-13.515625,24.109375
1695814166863,-0.2541504,0.2230835,-0.08868408,-15.296875,-15.59375,-22.875
1695814166888,-1.3500977,0.56170654,-0.25982666,78.328125,-54.4375,16.125
1695814166926,-0.0126953125,0.38372803,-0.9373169,54.25,53.21875,47.328125
1695814166967,1.999939,0.40667725,1.999939,147.5,20.34375,-95.78125
1695814167001,1.8288574,-0.59942627,-0.7918091,-11.90625,-12.640625,2.953125
1695814167051,1.2663574,-0.18804932,-0.2546997,21.171875,2.09375,-81.0
1695814167087,1.0378418,0.16522217,0.22503662,9.203125,9.265625,-27.1875
1695814167126,1.1376953,0.16790771,-0.0491333,-20.09375,-67.203125,0.921875
1695814167189,-0.77685547,-0.22491455,-0.50006104,21.703125,-45.609375,-22.84375
1695814167206,-1.3847656,0.3649292,0.29779053,-22.328125,3.734375,-10.28125
1695814167250,0.1496582,0.12982178,-0.055725098,53.765625,10.8125,-23.71875
1695814167287,0.49414062,-0.16241455,-1.4837036,75.25,90.71875,25.46875
1695814167324,1.999939,1.2692261,0.7074585,-50.703125,25.59375,96.78125
1695814167361,1.999939,-0.87628174,-0.673645,-54.625,-3.5625,-22.625
1695814167401,1.7189941,-0.47125244,0.07196045,-105.25,5.5625,31.59375
1695814167438,1.1018066,0.14788818,-0.18096924,-37.890625,-55.875,-2.703125
1695814167475,0.3269043,0.26898193,-0.018859863,-113.4375,9.25,23.765625
1695814167526,-0.15600586,0.12005615,-0.32086182,-8.546875,-17.484375,0.515625
1695814167564,-0.68237305,0.1984253,-0.31329346,11.34375,-30.359375,-12.640625
1695814167603,-0.40893555,0.6600952,0.05609131,25.90625,-34.96875,54.4375
1695814167641,0.2944336,0.13909912,-0.19195557,81.09375,1.03125,19.84375
1695814167676,1.999939,-0.86846924,-2.0,67.5625,-5.890625,-117.734375
1695814167714,1.3310547,0.026794434,0.45672607,-69.578125,56.265625,35.03125
1695814167776,1.999939,-0.87750244,-0.46588135,-0.046875,-12.078125,-23.46875
1695814167800,0.6953125,-0.20172119,-0.04864502,42.09375,-14.75,-54.4375
1695814167839,0.89331055,0.29779053,0.008483887,-30.203125,-54.21875,-2.984375
1695814167876,-0.13623047,0.21356201,-0.04107666,22.625,-50.875,-6.5625
1695814167914,-1.8205566,-0.46124268,-0.5046997,-51.984375,33.6875,-25.640625
1695814167966,-0.008056641,0.0680542,0.35858154,5.765625,8.21875,-23.96875
1695814168001,0.2043457,-0.25933838,0.2543335,15.140625,56.734375,-10.28125
1695814168040,0.95581055,0.04827881,-0.8213501,44.203125,17.125,40.203125
1695814168089,1.999939,0.95843506,0.5067749,-67.65625,33.8125,29.65625
1695814168125,1.999939,-0.82110596,-0.2859497,-104.90625,20.84375,24.9375
1695814168150,0.703125,-0.4661255,-0.10748291,-94.3125,-42.40625,32.75
1695814168201,0.43481445,-0.38555908,-0.16729736,-29.65625,-37.03125,-16.96875
1695814168251,0.49926758,0.5128784,-0.4102173,-24.625,-20.546875,-6.921875
1695814168275,0.049316406,0.7765503,-0.26031494,-10.09375,-16.9375,14.609375
1695814168314,-0.3864746,0.8510132,0.016540527,16.5,-58.5625,39.65625
1695814168350,-0.6748047,-0.29962158,-0.3320923,24.90625,-30.40625,28.8125
1695814168388,0.5366211,-0.30255127,-0.93341064,186.09375,63.90625,-5.65625
1695814168439,1.999939,0.4052124,0.22845459,-11.0,44.046875,65.25
1695814168477,1.9536133,-0.39630127,-0.13311768,-28.28125,-30.765625,-4.953125
1695814168516,1.2509766,-0.29400635,-0.117004395,68.5,17.34375,-62.3125
1695814168551,1.0559082,0.032409668,0.31658936,-28.828125,-20.40625,-16.5
1695814168588,0.30273438,0.1642456,-0.18365479,-6.640625,-57.546875,-19.359375
1695814168638,-1.7602539,-0.21710205,-0.6055298,-13.9375,-6.96875,-23.484375
1695814168719,-0.16430664,0.17572021,0.15179443,16.734375,-4.234375,-35.6875
1695814168722,0.49926758,-0.2078247,-0.019104004,10.5625,25.09375,-42.03125
1695814168751,0.72558594,-0.17852783,-0.22052002,-13.890625,54.96875,19.5625
1695814168789,1.999939,0.18939209,-0.2510376,4.90625,152.39062,71.1875
1695814168825,1.999939,-0.038879395,-0.006652832,-97.484375,-10.140625,3.703125
1695814168863,0.95410156,-0.77716064,-0.45806885,-70.9375,1.765625,63.25
1695814168913,0.58251953,-0.71759033,0.11077881,-90.859375,-0.34375,8.75
1695814168950,0.48657227,-0.011047363,-0.61602783,8.265625,-20.046875,-23.15625
1695814168990,0.19042969,0.77752686,-0.3267212,13.34375,-8.640625,8.75
1695814169027,0.056640625,1.8168335,0.22357178,-7.953125,-46.703125,52.25
1695814169063,-0.49682617,-0.14654541,-0.086242676,45.78125,-48.96875,56.90625
1695814169100,0.31396484,-0.8147583,-1.0237427,62.796875,71.578125,-7.59375
1695814169149,1.999939,1.999939,1.3778687,94.28125,110.4375,102.71875
1695814169189,0.89990234,0.9735718,-0.72979736,46.671875,-0.03125,-23.421875
1695814169225,1.7512207,-1.0337524,-0.41436768,81.6875,25.84375,-21.546875
1695814169264,0.67089844,-0.14263916,-0.078186035,-15.515625,-35.03125,4.953125
1695814169300,0.5913086,0.20062256,-0.09893799,1.59375,-53.3125,-18.9375
1695814169337,-0.89868164,-0.14752197,-0.3171997,0.40625,-10.1875,-40.28125
1695814169403,-0.72265625,0.23773193,0.2662964,-5.25,1.703125,-10.578125
1695814169425,0.16625977,0.055847168,-0.10357666,20.40625,30.484375,-10.734375
1695814169463,0.4013672,0.18792725,-0.90582275,77.515625,81.671875,23.265625
1695814169501,1.999939,1.999939,0.08660889,7.53125,106.75,75.328125
1695814169539,1.8718262,-0.40631104,-0.42681885,-70.0,-7.78125,-8.703125
1695814169589,1.5544434,-0.6555786,-0.31622314,-95.15625,-4.75,12.28125
1695814169626,0.7290039,0.07220459,-0.20806885,-63.953125,-37.59375,10.34375
1695814169665,0.34472656,0.12591553,-0.16436768,-78.578125,-22.28125,32.75
1695814169700,-0.07470703,0.3522339,-0.4385376,3.015625,-38.09375,-25.3125
1695814169736,-0.5522461,0.86883545,-0.077941895,34.15625,-29.609375,-12.328125
1695814169775,-0.3059082,0.36883545,-0.23834229,-20.734375,-18.78125,68.859375
1695814169812,0.38305664,-0.14605713,-0.942688,112.59375,55.15625,20.203125
1695814169863,1.999939,1.999939,0.5170288,193.14062,69.125,51.859375
1695814169902,1.5986328,0.3378296,-0.26934814,-47.171875,-30.234375,12.421875
1695814169956,1.3359375,-0.5564575,-0.2962036,70.546875,37.71875,-59.234375
1695814169977,0.9909668,0.23016357,0.32611084,-12.453125,-0.796875,-12.59375
1695814170011,0.5427246,-0.11920166,-0.27056885,0.265625,-50.25,9.765625
1695814170049,-0.8989258,-0.44049072,-0.41436768,-29.125,-22.34375,-22.890625
1695814170100,-0.5822754,0.43450928,0.1539917,-27.578125,9.53125,-38.21875
1695814170148,0.13647461,0.07513428,0.34002686,17.25,23.171875,-30.65625
1695814170174,0.6201172,-0.31304932,-0.97735596,40.203125,39.546875,25.203125
1695814170211,1.999939,1.6129761,0.56536865,-7.265625,98.171875,64.078125
1695814170251,1.999939,-0.7732544,-0.61846924,-70.21875,-23.671875,-13.09375
1695814170288,1.1706543,-0.54400635,0.14593506,-87.421875,10.625,42.328125
1695814170339,0.6191406,-0.3032837,-0.32598877,-64.03125,-43.0625,-9.953125
1695814170375,0.29638672,0.17523193,-0.16363525,-52.265625,-27.796875,16.15625
1695814170412,0.057861328,0.71990967,-0.46392822,-6.0625,-23.921875,3.6875
1695814170451,-0.31054688,0.83709717,-0.0071411133,17.625,-19.25,1.03125
1695814170488,-0.74194336,0.036071777,-0.066223145,0.921875,-37.8125,48.796875
1695814170526,0.11669922,-0.19268799,-0.6865845,105.578125,52.203125,12.71875
1695814170574,1.999939,1.2658081,1.999939,223.23438,256.90625,4.140625
1695814170612,1.0554199,0.39788818,-0.378479,-11.90625,-25.75,-4.0625
1695814170650,1.5522461,-0.847229,-0.24591064,36.59375,35.03125,-31.828125
1695814170688,0.9724121,0.3012085,0.29071045,34.109375,2.078125,-16.59375
1695814170727,0.85498047,-0.17779541,-0.081604004,-8.546875,-46.0,-2.703125
1695814170764,-0.5522461,-0.32183838,-0.34576416,26.21875,-32.015625,-31.859375
1695814170812,-1.3530273,0.51068115,-0.16436768,-47.203125,23.3125,-14.875
1695814170850,0.036376953,0.22332764,0.14569092,6.28125,26.890625,-13.5
1695814170889,0.43481445,-0.2715454,-0.9072876,47.8125,63.875,0.734375
1695814170924,1.999939,-1.9326782,-0.06451416,91.03125,82.640625,-1.71875
1695814170962,1.999939,-0.04449463,-0.019348145,-87.046875,-67.71875,38.578125
1695814171001,1.6259766,-0.44952393,-0.5117798,-56.625,-0.3125,9.8125
1695814171050,0.9382324,-0.45977783,0.18817139,-70.515625,-28.453125,-11.140625
1695814171088,0.5983887,0.21087646,-0.2131958,-74.078125,-17.53125,7.828125
1695814171126,0.008056641,0.35443115,-0.24151611,-41.15625,0.09375,23.3125
1695814171163,-0.6984863,0.47772217,-0.2210083,12.921875,-42.984375,-3.859375
1695814171201,-0.58618164,0.3139038,-0.06768799,22.515625,-16.859375,31.484375
1695814171252,0.07299805,0.07244873,-0.30230713,75.15625,5.84375,4.234375
1695814171288,1.3029785,-0.050842285,-0.7529907,85.859375,55.6875,-56.921875
1695814171325,1.9929199,-0.5640259,0.3776245,-74.3125,70.890625,67.15625
1695814171362,1.9055176,-1.227356,-0.68218994,27.578125,-7.8125,-11.140625
1695814171402,0.74658203,0.45770264,0.038513184,61.875,21.140625,-49.265625
1695814171439,1.3745117,0.22625732,0.309021,-19.578125,-22.453125,7.375
1695814171490,0.25585938,0.019226074,-0.24273682,6.859375,-61.8125,-9.625
1695814171525,-1.6137695,-0.8674927,-0.81085205,-46.578125,-26.546875,-11.9375
1695814171563,-0.14746094,0.26385498,0.21820068,0.859375,23.53125,-30.109375
1695814171615,0.110839844,-0.0068969727,-0.22833252,23.859375,54.203125,-8.71875
1695814171639,1.909668,0.23895264,-1.8220825,64.609375,25.609375,32.875
1695814171675,1.999939,0.43963623,0.07318115,-7.578125,6.71875,26.46875
1695814171724,1.999939,-0.7600708,-0.3320923,-64.984375,7.921875,36.703125
1695814171764,0.83569336,-0.5093384,-0.35162354,-107.0625,-18.421875,22.921875
1695814171803,0.4338379,-0.031799316,-0.21295166,-24.359375,-21.421875,10.390625
1695814171837,0.125,0.60687256,-0.21343994,-66.515625,-21.4375,1.234375
1695814171875,-0.16479492,0.6647339,-0.45635986,30.46875,0.15625,6.390625
1695814171913,-0.296875,0.6029663,0.21966553,-16.40625,-38.84375,40.890625
1695814171964,-0.34570312,-0.028137207,-0.56329346,74.8125,3.046875,30.9375
1695814172001,1.6904297,-1.2293091,-2.0,79.4375,-23.5,-41.171875
1695814172039,1.999939,0.4882202,-0.24884033,-66.5,-2.53125,17.59375
1695814172076,1.999939,-0.45587158,-0.6201782,40.15625,10.0,-12.84375
1695814172112,1.0927734,-0.37554932,-0.023986816,62.25,19.71875,-53.921875
1695814172152,0.92089844,0.29364014,0.16156006,-22.4375,-21.359375,3.9375
1695814172219,0.3552246,-0.059387207,-0.20465088,4.03125,-82.453125,-15.65625
1695814172246,-1.1787109,-0.427063,-0.50128174,-23.25,3.9375,-33.53125
1695814172276,-0.4501953,0.3168335,0.18865967,-4.671875,17.34375,-26.984375
1695814172326,0.2902832,0.113220215,-0.67266846,51.046875,30.703125,-15.078125
1695814172351,1.999939,-1.2337036,-0.80670166,16.28125,43.265625,74.3125
1695814172389,1.999939,-1.291565,-0.5708618,-14.0625,-61.59375,-5.5
1695814172438,1.2512207,-0.02520752,-0.5117798,-87.703125,37.09375,37.046875
1695814172476,1.1508789,0.16595459,0.2321167,-78.75,-22.265625,12.078125
1695814172513,0.5698242,-0.08428955,-0.028137207,-58.203125,-20.515625,31.859375
1695814172550,-0.12133789,-0.0791626,-0.5581665,-36.671875,-31.78125,8.09375
1695814172588,-0.38427734,0.4406128,-0.24517822,8.71875,-34.875,-29.421875
1695814172624,-0.4597168,0.82073975,0.0021362305,50.453125,-56.859375,22.328125
1695814172676,0.025146484,0.23382568,-0.6240845,-5.171875,14.515625,34.203125
1695814172718,1.999939,0.18109131,-0.17706299,172.40625,-7.796875,-92.046875
1695814172750,1.2658691,0.3571167,-0.27618408,-49.765625,20.53125,33.0
1695814172787,1.7668457,-0.5706177,-0.26837158,46.90625,-12.84375,-20.890625
1695814172825,0.9523926,-0.50250244,0.26776123,51.296875,23.421875,-37.40625
1695814172862,1.4238281,0.002380371,0.1630249,-4.640625,-37.890625,-5.46875
1695814172912,0.048095703,0.3007202,-0.15386963,25.28125,-30.8125,-23.453125
1695814172951,-1.4841309,-0.33746338,-0.62091064,-47.921875,-20.4375,-0.3125
1695814172988,-0.15332031,0.10418701,0.082214355,37.0,32.328125,-22.671875
1695814173024,0.3659668,-0.10333252,0.168396,-0.5625,33.546875,-13.03125
1695814173076,0.98535156,-0.17877197,-0.8401489,9.1875,35.46875,24.59375
1695814173099,1.999939,1.1879272,0.113708496,2.875,143.34375,65.453125
1695814173176,1.9816895,-0.005432129,0.09124756,-54.3125,-51.390625,12.9375
1695814173188,1.1716309,-0.60113525,-0.18804932,-81.171875,-7.78125,33.5
1695814173228,0.6647949,-0.6668091,-0.26153564,-10.875,-28.359375,-1.109375
1695814173263,0.59033203,0.28753662,-0.13580322,-86.046875,-6.0,-1.359375
1695814173300,0.029785156,0.5101929,-0.63482666,-49.234375,-49.609375,2.328125
1695814173337,-0.76220703,0.8539429,0.029968262,14.09375,-16.171875,-2.421875
1695814173389,-0.73657227,0.018493652,-0.15240479,-6.375,-13.0,46.84375
1695814173426,0.24145508,0.077819824,-0.61724854,122.328125,44.296875,-3.0625
1695814173463,1.999939,0.6713257,1.5336304,132.82812,133.57812,68.234375
1695814173502,1.4619141,0.9508667,0.1605835,-74.640625,-17.203125,-5.140625
1695814173538,1.6611328,-0.9085083,-0.20367432,10.671875,2.65625,-48.234375
1695814173575,0.7585449,-0.10089111,0.085632324,16.59375,-25.21875,-27.421875
1695814173637,1.0554199,0.016540527,0.066833496,-2.921875,-50.8125,6.0625
1695814173663,-0.46435547,0.168396,-0.2954712,10.078125,-26.953125,-17.203125
1695814173701,-2.0,-0.5647583,-0.3982544,-54.078125,8.5625,1.5
1695814173738,0.0637207,0.33758545,0.1774292,19.78125,44.90625,-20.671875
1695814173775,0.873291,0.055114746,-1.1504517,72.71875,65.703125,5.078125
1695814173812,1.999939,0.5524292,0.5560913,-26.515625,67.125,59.0625
1695814173863,1.999939,-1.4656372,-0.49786377,-76.109375,-36.21875,13.234375
1695814173902,0.6496582,-0.39239502,-0.19854736,-124.609375,11.75,20.421875
1695814173937,0.7211914,0.16156006,0.005065918,-51.890625,-28.6875,-0.515625
1695814173976,0.4169922,0.074401855,-0.20391846,-45.546875,-25.640625,42.296875
1695814174016,-0.05810547,0.11419678,-0.5293579,0.828125,-7.765625,8.9375
1695814174052,-0.4243164,0.5409546,-0.08721924,-5.015625,-24.671875,-22.71875
1695814174112,-0.6166992,0.5499878,-0.3953247,31.15625,-33.0,28.3125
1695814174138,0.41186523,-0.113342285,-1.0427856,103.75,28.8125,19.828125
1695814174180,1.999939,0.49578857,0.7601929,40.890625,23.34375,34.53125
1695814174214,1.5498047,-0.5755005,-0.39337158,-16.234375,-1.15625,-1.03125
1695814174254,1.1054688,-0.18927002,-0.13458252,74.671875,2.84375,-74.859375
1695814174309,1.1437988,0.27752686,0.4064331,9.171875,9.015625,13.125
1695814174337,0.84277344,-0.15216064,0.16375732,-2.671875,-53.71875,-19.15625
1695814174375,-0.7036133,-0.15655518,-0.46392822,11.703125,-4.6875,-20.203125
1695814174414,-1.3361816,0.20648193,-0.10455322,-34.6875,11.5625,-0.0625
1695814174450,0.18359375,0.030456543,0.06365967,-1.359375,36.0,-23.9375
1695814174487,0.7504883,-0.2341919,-1.2254028,71.453125,49.828125,2.421875
1695814174537,1.999939,1.151062,0.63031006,1.21875,66.25,86.1875
1695814174589,1.999939,-0.5252075,-0.76275635,-46.359375,-40.90625,1.984375
1695814174613,0.97094727,-0.6734009,-0.042053223,-101.015625,11.390625,32.203125
1695814174651,0.66430664,-0.18023682,-0.054992676,-72.921875,-28.890625,3.359375
1695814174689,0.4885254,0.50994873,-0.10235596,-50.359375,-2.65625,13.296875
1695814174726,-0.0041503906,0.28460693,-0.4956665,-3.15625,-11.609375,-2.09375
1695814174777,-0.46533203,0.41815186,-0.22369385,-15.609375,-33.453125,4.21875
1695814174812,-0.6245117,0.18572998,0.034606934,6.515625,-13.96875,62.40625
1695814174851,0.3317871,-0.128479,-0.6499634,118.125,2.359375,-3.203125
1695814174887,1.999939,0.7494507,1.8685913,186.45312,193.875,-15.46875
1695814174926,0.9499512,1.0680542,-0.3809204,-80.59375,25.265625,9.5
1695814174975,1.7587891,-0.99346924,-0.23760986,16.5625,28.015625,-41.90625
1695814175013,0.8859863,-0.14434814,0.1954956,8.03125,-19.515625,-22.65625
1695814175050,0.68896484,0.032409668,0.101257324,-7.9375,-39.265625,17.640625
1695814175088,-0.36523438,0.19793701,-0.24468994,27.390625,-44.484375,-25.890625
1695814175150,-1.1875,-0.39068604,-0.34405518,-53.390625,29.546875,-42.78125
1695814175175,-0.13305664,0.13348389,0.30169678,4.734375,19.59375,-27.734375
1695814175200,0.6191406,0.32635498,-1.1860962,92.328125,39.703125,24.890625
1695814175250,1.999939,0.56073,0.3859253,11.84375,23.390625,50.34375
1695814175288,1.999939,-1.0994263,-0.5811157,-95.859375,30.90625,11.609375
1695814175326,0.7236328,-0.36090088,-0.206604,-117.3125,-28.71875,16.375
1695814175363,0.72631836,0.27752686,-0.21051025,-17.203125,-37.28125,15.859375
1695814175402,0.6242676,0.2177124,0.04119873,-90.671875,-4.5625,32.78125
1695814175491,0.01586914,0.29437256,-0.35211182,-11.03125,-38.0625,1.671875
1695814175493,-0.38549805,0.38153076,-0.07720947,39.6875,-52.515625,-22.484375
1695814175526,-0.7133789,0.0119018555,-0.34503174,29.28125,-9.734375,26.8125
1695814175564,0.27026367,0.16546631,-0.91119385,106.3125,43.0,7.640625
1695814175601,1.999939,-0.43243408,1.0079956,-18.328125,31.078125,35.078125
1695814175638,1.7346191,-0.67193604,-0.4295044,43.015625,-6.34375,-12.75
1695814175675,0.9538574,0.059265137,0.14886475,41.015625,22.359375,-56.640625
1695814175739,1.2714844,0.40374756,0.33221436,32.6875,-1.71875,7.890625
1695814175763,0.9145508,-0.20343018,0.1071167,3.46875,-35.75,-8.375
1695814175801,-0.69311523,-0.58843994,-0.55133057,7.25,-23.359375,-31.65625
1695814175839,-1.1416016,0.6351929,0.018493652,-31.140625,10.375,-26.046875
1695814175876,0.095458984,0.3114624,0.20111084,-6.21875,26.53125,-22.234375
1695814175912,0.77856445,0.31243896,-1.0745239,102.84375,56.640625,15.359375
1695814175963,1.999939,0.48187256,0.8883667,55.453125,-6.609375,56.546875
1695814176002,1.9472656,-1.2705688,-0.36505127,-88.734375,-24.890625,13.09375
1695814176037,0.81103516,-0.7197876,-0.27642822,-86.71875,-9.171875,32.359375
1695814176075,0.76708984,-0.08673096,-0.34429932,-55.703125,-17.921875,-2.015625
1695814176113,0.7817383,0.605896,-0.019836426,-73.828125,-2.109375,-2.515625
1695814176150,-0.039794922,0.6691284,-0.40142822,11.078125,-26.46875,-15.59375
1695814176202,-0.74853516,0.9298706,0.057556152,-9.921875,-37.21875,21.3125
1695814176238,-0.4375,0.041931152,-0.023010254,-5.390625,-13.96875,62.4375
1695814176276,0.32128906,-0.20025635,-0.647522,123.40625,39.640625,-0.3125
1695814176313,1.999939,0.65911865,1.9928589,138.70312,169.79688,38.796875
1695814176350,1.2131348,0.9122925,-0.19927979,-33.796875,-71.234375,-31.765625
1695814176390,1.2458496,-1.2810669,-0.23834229,-24.453125,27.875,-19.640625
1695814176443,0.59375,0.05682373,0.15911865,17.609375,-12.3125,-8.609375
1695814176475,0.7397461,0.29486084,-0.07891846,4.828125,-45.390625,8.171875
1695814176513,-0.31079102,0.038513184,-0.4446411,23.0,-27.75,-16.046875
1695814176551,-1.4262695,-0.11553955,0.085632324,-45.453125,43.625,-29.546875
1695814176588,0.10180664,-0.08453369,0.3241577,6.265625,24.5625,-15.59375
1695814176625,0.71972656,0.46673584,-1.25177,115.34375,61.5625,20.984375
1695814176678,1.9299316,0.66741943,0.34002686,31.3125,18.875,44.484375
1695814176714,1.999939,-1.1885376,-0.5186157,-90.109375,9.921875,45.125
1695814176751,0.7495117,-0.69073486,0.117126465,-122.078125,-19.9375,0.109375
1695814176788,0.7067871,-0.20855713,-0.52545166,-64.8125,-40.453125,1.21875
1695814176826,0.6647949,0.39959717,-0.30474854,-3.703125,15.171875,34.234375
1695814176863,0.009521484,0.97210693,-0.046447754,-22.109375,-19.1875,5.515625
1695814176914,-0.46118164,0.6117554,-0.039611816,-5.3125,-33.03125,5.40625
1695814176952,-0.595459,-0.33673096,-0.65997314,35.3125,-12.515625,35.171875
1695814176988,0.60302734,-0.17340088,-1.3052368,135.35938,63.15625,-27.890625
1695814177025,1.3249512,0.38494873,-0.097717285,27.546875,-0.703125,6.171875
1695814177063,1.999939,-0.7581177,-0.29815674,23.15625,-15.5,16.59375
1695814177101,0.6850586,-0.7896118,0.22283936,36.203125,20.609375,-55.015625
1695814177151,0.93896484,0.4623413,0.0211792,33.6875,-31.125,-5.984375
1695814177188,0.7421875,0.2218628,0.070495605,-6.421875,-48.46875,-2.921875
1695814177225,-0.59887695,-0.1987915,-0.4758911,6.40625,-15.03125,-36.796875
1695814177262,-1.4316406,0.07293701,0.17816162,-38.84375,24.46875,-18.359375
1695814177301,0.10864258,0.0119018555,0.19012451,-22.890625,18.125,-7.59375
1695814177341,0.8757324,0.28607178,-1.2769165,75.15625,68.890625,36.890625
1695814177389,1.999939,1.0878296,0.40472412,67.3125,16.234375,91.734375
1695814177442,1.999939,-1.1392212,-0.5960083,-74.25,-5.40625,-3.25
1695814177463,0.78344727,-0.9793091,0.066833496,-128.8125,16.171875,45.71875
1695814177501,0.6411133,0.046325684,-0.38336182,-10.390625,-36.515625,-7.46875
1695814177543,0.41577148,0.38494873,-0.1897583,-47.09375,9.46875,6.4375
1695814177575,0.014404297,0.97698975,-0.2720337,-0.921875,-22.0625,-0.46875
1695814177625,-0.55078125,0.66815186,0.039733887,-39.140625,-9.390625,37.640625
1695814177664,-0.4326172,-0.29156494,-0.63287354,59.28125,-23.296875,40.296875
1695814177701,0.81225586,-0.30718994,-1.1638794,173.82812,36.296875,-45.34375
1695814177739,1.999939,0.38739014,0.17474365,-50.59375,28.515625,11.421875
1695814177776,1.5292969,-0.46881104,-0.5071411,22.984375,1.21875,-5.859375
1695814177825,0.93408203,-0.45684814,0.028259277,36.578125,-8.75,-54.0
1695814177862,0.7338867,0.45648193,0.41253662,-5.46875,-16.4375,-5.953125
1695814177902,0.76171875,0.14666748,-0.019836426,0.421875,-74.453125,-1.65625
1695814177937,-0.7104492,-0.55596924,-0.7661743,-20.875,-16.859375,-21.296875
1695814177975,-0.91308594,0.41497803,0.22454834,-3.796875,23.1875,-28.015625
1695814178021,-0.039794922,0.050476074,-0.255188,14.25,37.734375,-3.421875
1695814178062,1.999939,-2.0,-2.0,96.921875,142.10938,81.71875
1695814178101,1.999939,-0.98809814,-0.085510254,-15.75,-44.71875,-12.34375
1695814178138,0.97021484,-0.56427,-0.28009033,-83.71875,17.3125,15.171875
1695814178175,0.98095703,0.07611084,0.101745605,-69.15625,1.375,29.953125
1695814178214,0.654541,-0.19000244,-0.3555298,-4.203125,-23.46875,26.515625
1695814178255,0.19042969,0.322937,-0.25006104,-80.34375,-8.8125,9.046875
1695814178301,-0.2944336,0.59368896,-0.20684814,19.328125,-31.078125,-10.171875
1695814178338,-0.92626953,0.7196655,-0.053771973,15.75,-38.671875,40.484375
1695814178376,0.16479492,0.042663574,-0.24371338,71.734375,6.890625,18.390625
1695814178417,1.999939,1.2474976,-2.0,88.25,-51.078125,-69.515625
1695814178451,1.0615234,0.2826538,-0.23248291,-42.71875,-69.203125,-21.78125
1695814178502,1.9001465,-0.85479736,-0.3760376,13.28125,9.5625,-33.203125
1695814178538,0.8376465,-0.31573486,0.51727295,121.171875,-14.34375,-32.09375
1695814178575,0.67822266,0.09100342,0.31219482,59.828125,-16.171875,-7.34375
1695814178613,0.52319336,0.019714355,-0.11383057,-58.375,-9.890625,-21.796875
1695814178650,-0.9807129,-0.28375244,-0.673645,-74.203125,-13.796875,3.0
1695814178688,-0.73339844,0.16204834,0.26776123,20.9375,31.375,-15.890625
1695814178727,0.118652344,-0.009094238,-0.9175415,31.953125,59.921875,-9.515625
1695814178826,1.999939,-0.47808838,-1.2029419,34.96875,65.375,83.453125
1695814178828,1.999939,-0.59552,-0.26348877,0.609375,-39.875,35.15625
1695814178851,1.1928711,-0.5706177,-0.50250244,-67.65625,37.671875,43.296875
1695814178896,0.90527344,-0.33062744,0.09320068,-110.53125,-50.375,-3.78125
1695814178925,0.7553711,0.08880615,-0.33087158,-17.984375,-10.65625,3.75
1695814178961,0.111083984,0.42059326,-0.31085205,-54.359375,-21.28125,18.796875
1695814179014,-0.40112305,0.5331421,-0.34210205,26.34375,-30.0,-5.890625
1695814179054,-0.71533203,0.5072632,-0.0803833,35.71875,-27.4375,28.015625
1695814179087,0.0637207,-0.0095825195,-0.25689697,46.359375,-5.890625,31.25
1695814179125,1.999939,-0.15557861,-2.0,63.546875,-59.4375,-115.75
1695814179163,0.66381836,-0.25054932,0.034851074,-74.109375,10.984375,17.5
1695814179202,1.8964844,-1.5276489,-0.62750244,59.9375,-9.1875,-22.75
1695814179249,0.6726074,-0.11578369,0.34295654,54.96875,-7.234375,-53.828125
1695814179287,1.2260742,0.5385132,0.1473999,18.015625,-34.90625,4.6875
1695814179329,0.08666992,0.17694092,-0.21148682,34.515625,-64.671875,-4.09375
1695814179365,-1.1594238,-0.59552,-0.78790283,-56.078125,-4.609375,-33.875
1695814179402,-0.54467773,0.03314209,0.4772339,19.03125,16.328125,-46.84375
1695814179437,0.5065918,0.061462402,-0.42388916,9.453125,7.421875,3.8125
1695814179487,1.999939,-1.0115356,-0.46124268,29.640625,161.5,52.40625
1695814179524,1.999939,-1.0796509,0.6828003,-45.921875,-2.015625,40.609375
1695814179562,0.9394531,-1.3806763,-0.2522583,-75.875,19.296875,19.265625
1695814179600,0.57055664,0.030212402,-0.12213135,-82.734375,-25.96875,10.21875
1695814179639,0.8112793,0.07220459,-0.4006958,30.453125,-22.4375,-12.28125
1695814179676,0.4333496,0.6610718,-0.2678833,-126.4375,8.96875,18.796875
1695814179726,-0.13671875,0.49627686,0.050231934,-29.578125,-23.78125,0.015625
1695814179763,-1.1291504,0.26971436,-0.26055908,50.171875,-51.71875,24.65625
1695814179801,-0.025146484,0.18450928,-0.074035645,49.53125,-21.46875,7.59375
1695814179838,1.999939,1.7450562,-2.0,98.640625,-174.39062,-135.70312
1695814179877,0.7854004,0.2062378,-0.082092285,-67.515625,-28.234375,19.046875
1695814179911,1.6901855,-1.1326294,-0.6304321,30.328125,12.828125,-35.140625
1695814179965,0.6999512,-0.077941895,0.30682373,61.90625,-0.34375,-36.453125
1695814180002,1.1430664,0.40008545,0.24139404,17.40625,-25.09375,9.8125
1695814180042,0.22827148,0.19085693,-0.2000122,30.109375,-53.546875,-14.1875
1695814180077,-1.5036621,-0.92852783,-0.71661377,-66.953125,3.9375,-19.0625
1695814180113,-0.4116211,0.20599365,0.06878662,29.5,41.953125,-34.109375
1695814180151,0.47802734,0.25823975,-0.378479,38.046875,25.25,2.515625
1695814180200,1.999939,-0.60772705,-0.89141846,65.734375,58.6875,-37.546875
1695814180236,1.7702637,-0.86968994,0.3908081,-61.9375,-105.5,20.21875
1695814180274,0.8857422,-1.1487427,-0.42340088,-60.796875,30.890625,18.59375
1695814180312,0.4350586,-0.4553833,-0.20343018,-85.875,-20.5,4.234375
1695814180353,1.1257324,0.3241577,-0.116760254,-15.8125,-17.859375,-13.09375
1695814180388,0.69189453,0.6610718,-0.30743408,-50.015625,-7.15625,13.375
1695814180437,-0.37109375,0.7428589,-0.06817627,3.40625,-25.453125,-10.71875
1695814180475,-1.199707,0.03656006,-0.23638916,-0.734375,-41.859375,53.265625
1695814180517,-9.765625E-4,-0.44244385,-0.1338501,49.921875,-11.0,29.375
1695814180551,1.999939,-1.5696411,-2.0,-114.875,-206.90625,-195.5625
1695814180590,0.97387695,0.20013428,0.04046631,-106.21875,3.53125,8.890625
1695814180626,1.7612305,-1.4754028,-0.7871704,22.15625,-0.546875,-17.859375
1695814180676,0.53466797,0.12347412,0.18328857,50.515625,-8.484375,-36.703125
1695814180717,1.166748,0.38885498,0.14593506,-8.578125,-25.796875,7.796875
1695814180750,0.14941406,-0.062561035,-0.15216064,32.125,-60.859375,-1.453125
1695814180787,-1.2922363,-0.67437744,-0.50323486,-70.0,18.140625,-20.796875
1695814180825,-0.47973633,0.33343506,0.2826538,14.125,31.0,-28.96875
1695814180863,0.23803711,0.04559326,-0.5261841,20.171875,31.703125,8.53125
1695814180914,1.999939,-0.67144775,-1.5283813,117.390625,151.60938,0.46875
1695814180951,1.999939,-0.51153564,0.3126831,-52.515625,14.125,33.203125
1695814180990,1.170166,-1.373352,-0.17462158,-51.59375,-7.25,31.46875
1695814181026,0.6599121,-0.28131104,-0.3213501,-88.0625,-58.296875,-12.078125
1695814181064,0.579834,0.15716553,-0.16656494,18.875,-41.25,-1.15625
1695814181103,0.5715332,0.6207886,-0.22589111,-51.34375,-14.421875,5.453125
1695814181152,-0.15112305,0.6832886,-0.27178955,-6.765625,-20.328125,9.515625
1695814181189,-0.77856445,0.42108154,0.09295654,7.859375,-31.59375,44.875
1695814181228,-0.23144531,-0.23077393,-0.40020752,57.25,-0.0625,17.046875
1695814181264,1.7954102,-0.59259033,-1.2332153,72.359375,22.75,-58.3125
1695814181300,1.2753906,-0.12408447,0.0211792,35.546875,26.375,33.515625
1695814181350,1.999939,-1.5747681,-0.628479,14.390625,-8.609375,7.390625
1695814181391,0.7800293,-0.014221191,0.25335693,35.09375,24.078125,-58.171875
1695814181426,1.1225586,0.39031982,0.26409912,10.453125,2.53125,1.828125
1695814181464,0.61083984,-0.023986816,-0.17974854,25.96875,-68.578125,11.5625
1695814181502,-0.9277344,-0.40509033,-0.46636963,-18.96875,-13.265625,-16.171875
1695814181538,-0.8959961,0.17694092,0.2140503,-3.84375,32.359375,-16.90625
1695814181590,0.16772461,0.061950684,-0.44561768,3.484375,27.796875,-22.484375
1695814181627,1.999939,-2.0,-2.0,-86.140625,8.28125,-34.25
1695814181664,1.3813477,0.12640381,0.4244995,-40.859375,8.65625,56.6875
1695814181701,1.2731934,-1.3237915,-0.44781494,-13.234375,6.28125,-3.453125
1695814181737,0.9194336,-0.12579346,-0.1609497,-85.421875,-13.390625,11.71875
1695814181788,0.8015137,0.29315186,-0.10333252,38.078125,-34.5,1.265625
1695814181825,0.2709961,0.35003662,0.03363037,-111.375,-0.046875,23.578125
1695814181862,-0.34350586,0.26922607,-0.67193604,60.15625,-52.515625,4.453125
1695814181904,-0.6516113,0.42352295,0.059509277,34.703125,-36.046875,8.671875
1695814181938,-0.29711914,0.3932495,-0.38848877,49.6875,-3.578125,10.390625
1695814181975,1.4570312,-0.1194458,-1.4414673,84.828125,58.234375,-14.609375
1695814182012,1.9516602,-0.17608643,0.30682373,30.75,-5.796875,34.5
1695814182106,1.999939,-1.3655396,-0.23150635,17.359375,-7.953125,-11.296875
1695814182109,1.1386719,-0.40386963,0.3114624,37.796875,35.53125,-53.8125
1695814182149,1.5222168,0.62005615,0.20916748,34.9375,-20.671875,-4.90625
1695814182174,0.74438477,-0.039123535,-0.026428223,6.546875,-34.703125,1.703125
1695814182226,-0.67333984,-0.37457275,-0.4138794,-3.3125,-17.703125,-23.265625
1695814182250,-1.3852539,0.37249756,0.17816162,-29.234375,14.34375,-38.921875
1695814182300,0.13476562,0.307312,0.074401855,-22.625,27.9375,-18.328125
1695814182338,0.8847656,0.124938965,-1.0046997,74.921875,53.03125,34.28125
1695814182375,1.999939,1.2494507,0.5409546,13.5,63.703125,101.0
1695814182413,1.999939,-0.8262329,-0.3411255,-60.46875,-14.140625,-3.640625
1695814182451,0.84643555,-0.8220825,-0.12237549,-112.625,10.875,44.5
1695814182487,0.5751953,-0.12408447,-0.52593994,-17.953125,-34.75,-10.8125
1695814182537,0.44360352,0.15325928,-0.121398926,-39.046875,5.953125,-5.296875
1695814182575,0.23266602,0.96307373,-0.17510986,-22.390625,-17.125,2.71875
1695814182615,-0.31176758,0.7055054,-0.055236816,-3.5,-31.296875,30.125
1695814182652,-0.6689453,-0.08502197,0.054626465,-1.046875,-30.296875,30.109375
1695814182690,0.203125,-0.08282471,-0.68756104,157.01562,49.078125,-35.171875
1695814182724,1.999939,-0.8052368,1.999939,159.5,203.34375,39.421875
1695814182776,1.026123,0.5126343,-0.52838135,-50.375,-23.640625,-7.8125
1695814182813,1.5302734,-0.8069458,-0.26226807,13.03125,36.984375,-45.921875
1695814182852,0.94189453,0.33807373,0.41131592,-2.234375,-18.375,-12.75
1695814182889,0.75927734,0.06585693,0.14398193,36.34375,-44.109375,6.015625
1695814182925,-0.24731445,-0.26739502,-0.7156372,0.296875,-55.25,-14.421875
1695814182963,-1.0336914,-0.04815674,-0.03668213,-38.578125,23.28125,-26.078125
1695814183023,-0.23339844,0.1005249,0.15692139,-10.40625,22.1875,-19.109375
1695814183062,0.78564453,0.20281982,-1.0681763,83.078125,58.03125,19.5625
1695814183087,1.999939,0.7250366,1.0206909,-30.953125,24.25,36.484375
1695814183126,1.999939,-1.131897,-0.43341064,-109.140625,-31.5,17.859375
1695814183161,0.6965332,-0.33013916,-0.2564087,-87.53125,11.703125,26.375
1695814183202,0.89086914,-0.10845947,-0.101379395,-52.28125,-40.546875,-16.5625
1695814183251,0.9814453,0.3444214,0.03753662,-40.734375,0.3125,7.6875
1695814183287,0.12597656,0.50213623,-0.34747314,-50.953125,-36.140625,16.4375
1695814183325,-0.55981445,0.47479248,-0.37945557,37.71875,-19.375,-3.40625
1695814183362,-0.92456055,0.03778076,0.031921387,2.875,13.21875,31.875
1695814183403,0.2565918,0.09100342,-0.92559814,118.5,39.78125,1.0
1695814183437,1.999939,0.26361084,1.9389038,134.125,155.75,76.875
1695814183490,0.86035156,0.82611084,-0.6331177,5.28125,-35.734375,-14.859375
1695814183524,1.2885742,-1.2957153,-0.28082275,4.1875,32.3125,-9.171875
1695814183563,0.6484375,0.0072631836,0.14813232,63.0,-24.4375,-38.015625
1695814183601,1.1948242,0.38763428,0.116882324,-29.046875,-43.328125,6.09375
1695814183640,-0.37451172,-0.038146973,-0.28814697,13.0,-55.75,-20.375
1695814183675,-2.0,-0.2805786,-0.42510986,-96.09375,-1.8125,-33.71875
1695814183727,-0.05834961,-0.10308838,0.3209839,-3.1875,17.71875,-18.46875
1695814183775,0.93774414,0.09222412,-0.72320557,45.125,40.1875,5.46875
1695814183801,1.999939,1.0534058,0.49212646,4.953125,-3.921875,64.40625
1695814183837,1.999939,-1.1560669,-0.3796997,-66.875,7.8125,-20.328125
1695814183876,0.7348633,-0.51519775,-0.020568848,-110.421875,6.75,47.859375
1695814183912,0.71728516,-0.18121338,-0.019348145,-33.171875,4.953125,13.75
1695814183962,0.34570312,0.09466553,-0.40386963,-72.109375,12.484375,8.171875
1695814184000,0.08642578,0.680603,-0.18121338,-19.078125,8.78125,7.53125
1695814184037,-0.3972168,0.62542725,-0.016906738,7.96875,-39.1875,5.859375
1695814184075,-0.673584,0.15960693,-0.4487915,18.984375,-28.40625,31.796875
1695814184118,0.47583008,-0.23883057,-1.5303345,164.70312,52.828125,-5.9375
1695814184152,1.999939,0.37493896,1.0892944,5.625,72.9375,13.296875
1695814184199,1.3266602,0.012390137,-0.46124268,-33.484375,-21.53125,11.25
1695814184236,1.0024414,-0.5523071,-0.18682861,59.4375,22.96875,-62.828125
1695814184275,0.875,0.097839355,0.46087646,-3.84375,5.875,-4.09375
1695814184312,1.2446289,-0.21295166,-0.0947876,-12.109375,-65.0625,-22.265625
1695814184352,-0.53100586,0.1984253,-0.33258057,4.703125,-31.1875,-35.21875
1695814184387,-2.0,0.50701904,-0.059631348,-34.3125,0.90625,23.5
1695814184438,0.060058594,-0.016906738,0.15740967,7.28125,33.703125,4.390625
1695814184476,0.9758301,-0.23858643,-1.4092407,100.0625,74.484375,10.484375
1695814184519,1.999939,1.999939,0.08514404,28.6875,46.28125,23.328125
1695814184550,1.999939,-0.81744385,-0.21539307,-108.859375,-44.96875,20.5625
1695814184587,0.71533203,-0.9649048,0.09832764,-97.46875,-17.6875,28.421875
1695814184638,0.5649414,-0.36114502,-0.4570923,-99.53125,-36.75,-17.96875
1695814184675,0.39794922,0.6959839,-0.28399658,-23.875,-4.640625,5.546875
1695814184713,0.2607422,0.8082886,0.15667725,-36.953125,-4.625,9.953125
1695814184751,-0.41552734,0.6576538,-0.597229,27.03125,-46.875,-0.328125
1695814184789,-0.4921875,0.11273193,-0.054504395,0.140625,-9.625,41.109375
1695814184825,0.25390625,-0.20098877,-0.63482666,119.0625,11.734375,-8.28125
1695814184889,1.999939,0.2765503,1.999939,189.4375,97.6875,43.046875
1695814184917,1.2797852,0.9928589,-0.48736572,-87.453125,-76.609375,-20.515625
1695814184952,1.1335449,-0.8220825,-0.43218994,44.15625,53.25,-26.859375
1695814185000,0.8051758,-0.37017822,0.3912964,9.984375,-8.84375,15.703125
1695814185026,0.9448242,-0.20465088,0.15740967,21.9375,-43.53125,0.859375
1695814185064,-0.44628906,0.22723389,-0.6001587,10.796875,-55.78125,-26.875
1695814185115,-0.98095703,-0.14215088,-0.065979004,-41.328125,31.515625,-11.71875
1695814185150,-0.25878906,0.022888184,0.26434326,-2.375,39.671875,-11.640625
1695814185190,0.58740234,0.1317749,-0.8755493,56.234375,52.84375,15.890625
1695814185226,1.999939,0.43792725,0.73480225,-54.640625,35.34375,40.15625
1695814185263,1.999939,-1.3574829,-0.43634033,-100.984375,-10.15625,32.125
1695814185300,0.6948242,-0.83477783,-0.21783447,-97.75,5.859375,31.515625
1695814185350,0.6660156,-0.11920166,-0.30767822,-68.6875,-18.75,0.84375
1695814185388,0.44458008,0.45550537,-0.21832275,-11.59375,-16.5,18.390625
1695814185425,0.26953125,0.7201538,-0.25689697,-32.71875,5.796875,12.34375
1695814185462,-0.22290039,0.48602295,-0.1182251,-1.5,-39.515625,4.46875
1695814185503,-0.8769531,-0.023986816,-0.19317627,48.578125,-29.40625,29.84375
1695814185539,0.24853516,0.0368042,-0.8093872,133.375,26.203125,-8.234375
1695814185590,1.999939,1.999939,1.999939,162.25,94.6875,-40.015625
1695814185627,0.9394531,-0.1038208,-0.58258057,-60.90625,-34.71875,18.34375
1695814185675,1.1088867,-0.90826416,-0.39141846,35.109375,8.984375,-54.9375
1695814185700,0.80737305,0.44281006,0.35003662,30.890625,3.0625,-57.78125
1695814185738,1.2692871,0.055114746,0.07977295,5.40625,-40.015625,24.328125
1695814185775,-0.16455078,-0.14801025,-0.25177002,31.046875,-38.90625,-2.609375
1695814185825,-1.8571777,-0.57818604,-0.3352661,-79.671875,-10.8125,-26.1875
1695814185863,-0.10522461,0.06756592,0.24822998,17.140625,43.890625,-21.65625
1695814185905,0.6101074,0.29779053,-0.93829346,65.609375,52.25,15.640625
1695814185939,1.999939,1.999939,0.7601929,30.296875,77.203125,92.015625
1695814185975,1.9543457,-0.8008423,-0.02911377,-153.90625,-34.15625,21.953125
1695814186014,0.5161133,-1.2124634,-0.18902588,-85.34375,-8.453125,28.84375
1695814186063,0.57470703,0.046569824,-0.6062622,-70.59375,-12.046875,-20.125
1695814186100,1.0224609,1.1212769,0.28582764,-34.28125,-10.921875,3.296875
1695814186138,0.14526367,0.9188843,-0.7805786,34.796875,-14.921875,-4.828125
1695814186175,-0.36279297,0.4701538,0.24139404,-93.828125,-12.25,21.453125
1695814186214,-1.0944824,-0.39483643,-0.5281372,81.953125,-41.984375,49.125
1695814186250,0.34838867,-0.3267212,-0.30499268,56.859375,13.46875,-24.203125
1695814186300,1.999939,0.7963257,1.999939,167.70312,79.53125,16.375
1695814186338,1.0136719,1.0189819,-0.54473877,-65.59375,-55.125,-21.015625
1695814186383,1.246582,-0.5696411,-0.43243408,-8.875,51.875,-47.8125
1695814186412,1.1286621,-0.18145752,0.4935913,9.125,-7.21875,25.25
1695814186450,0.96850586,-0.07159424,0.24261475,8.140625,-44.125,-9.78125
1695814186488,-0.46411133,0.3270874,-0.5166626,17.625,-47.6875,-23.15625
1695814186550,-1.2158203,-0.4072876,-0.14361572,-47.546875,39.765625,-4.515625
1695814186589,-0.22143555,-0.031311035,0.2453003,5.484375,20.921875,-22.1875
1695814186614,0.63305664,0.09906006,-0.90997314,41.390625,39.578125,18.46875
1695814186651,1.999939,0.20135498,0.73309326,-31.96875,113.375,44.8125
1695814186688,1.999939,-1.0618286,-0.23052979,-94.0,-44.6875,40.96875
1695814186725,0.7121582,-0.7385864,-0.28668213,-79.15625,-9.09375,38.546875
1695814186775,0.80810547,0.0099487305,-0.33306885,-43.234375,-37.96875,-15.890625
1695814186827,0.828125,0.2970581,0.07147217,-32.46875,-8.1875,-6.671875
1695814186877,0.09277344,0.45355225,-0.52667236,-28.8125,-23.953125,20.578125
1695814186888,-0.4428711,0.6869507,-0.0178833,26.921875,-11.484375,5.859375
1695814186926,-0.86157227,0.105651855,-0.06890869,8.703125,-7.578125,29.015625
1695814186964,-0.06542969,0.008483887,-1.0908813,126.03125,52.0,18.203125
1695814187013,1.999939,1.2140503,1.999939,61.484375,45.546875,-190.92188
1695814187063,0.82250977,0.4899292,-0.5928345,-39.375,-39.484375,-15.125
1695814187100,1.9614258,-1.3040161,-0.472229,43.40625,14.40625,-24.359375
1695814187153,0.5991211,0.19036865,0.21673584,40.390625,-20.3125,-43.90625
1695814187167,1.1113281,0.25042725,-0.026184082,3.671875,-36.0625,5.90625
1695814187200,0.0769043,0.07366943,-0.2276001,30.4375,-63.609375,-22.921875
1695814187251,-1.6767578,-0.5899048,-0.38555908,-100.375,-24.796875,-33.484375
1695814187289,-0.3010254,-0.051574707,-0.010070801,47.71875,36.171875,-28.984375
1695814187324,0.4819336,0.1005249,-0.7647095,51.921875,45.453125,-11.390625
1695814187364,1.999939,-2.0,0.45184326,24.421875,192.29688,103.515625
1695814187400,1.999939,-0.90753174,0.13568115,-2.75,-42.484375,56.234375
1695814187437,1.2631836,-0.9741821,-0.29937744,-73.765625,-0.9375,25.671875
1695814187488,0.7937012,-0.14483643,-0.315979,-122.03125,-50.484375,0.703125
1695814187539,0.6257324,0.3126831,-0.15509033,46.375,0.703125,4.234375
1695814187563,0.45874023,0.6798706,-0.27911377,-55.859375,37.484375,15.984375
1695814187600,-0.3005371,0.7868042,0.02532959,-45.015625,3.390625,17.453125
1695814187638,-0.5773926,-0.051574707,-0.25079346,-20.859375,-22.234375,53.921875
1695814187690,0.06689453,-0.26446533,-0.5293579,122.09375,-32.03125,-20.671875
1695814187728,1.999939,1.6759644,-1.2918091,173.0,-234.60938,-4.0625
1695814187766,1.0412598,0.7445679,-0.74542236,-96.34375,-53.671875,-6.40625
