# Sensor type: Respeck
# Activity type: Sitting
# Activity subtype: Normal
# Subject id: s1862623
# Notes: test1
timestamp,accel_x,accel_y,accel_z,gyro_x,gyro_y,gyro_z
1695726144463,-0.53515625,-0.7390747,0.5578003,0.25,0.625,0.390625
1695726144506,-0.53344727,-0.7424927,0.5582886,0.09375,0.734375,0.375
1695726144544,-0.54248047,-0.74298096,0.5553589,0.109375,0.96875,0.5625
1695726144582,-0.53686523,-0.74224854,0.5621948,0.234375,0.734375,0.28125
1695726144643,-0.5373535,-0.7383423,0.5609741,0.53125,1.0,0.375
1695726144644,-0.5349121,-0.73883057,0.5570679,-0.046875,1.015625,0.15625
1695726144682,-0.53515625,-0.7463989,0.55926514,0.40625,0.5625,0.328125
1695726144722,-0.53271484,-0.7398071,0.5531616,0.21875,0.640625,0.203125
1695726144765,-0.53564453,-0.7359009,0.55389404,-0.265625,0.984375,0.03125
1695726144803,-0.52905273,-0.7371216,0.55755615,0.046875,1.109375,0.3125
1695726144842,-0.53222656,-0.74420166,0.55267334,-0.203125,0.578125,0.421875
1695726144882,-0.5344238,-0.7463989,0.557312,0.390625,0.9375,0.59375
1695726144922,-0.53515625,-0.7432251,0.5536499,0.296875,1.234375,0.265625
1695726144963,-0.53686523,-0.736145,0.55218506,0.015625,1.140625,0.28125
1695726145003,-0.53759766,-0.7481079,0.5482788,-0.046875,0.6875,0.484375
1695726145045,-0.53466797,-0.74713135,0.55218506,-0.015625,0.828125,0.484375
1695726145090,-0.5319824,-0.7439575,0.55804443,0.15625,1.171875,0.1875
1695726145122,-0.53930664,-0.7461548,0.54730225,-0.1875,0.890625,0.203125
1695726145162,-0.53344727,-0.7439575,0.54852295,0.0625,1.046875,0.53125
1695726145203,-0.5373535,-0.74298096,0.5516968,0.125,0.90625,0.1875
1695726145243,-0.53271484,-0.7456665,0.5487671,-0.03125,1.109375,0.125
1695726145283,-0.5366211,-0.7554321,0.54608154,-0.234375,0.75,0.21875
1695726145344,-0.532959,-0.7473755,0.5477905,-0.125,0.75,0.21875
1695726145364,-0.5361328,-0.7476196,0.54974365,-0.09375,0.890625,0.296875
1695726145406,-0.53881836,-0.75177,0.5524292,0.109375,1.015625,0.078125
1695726145443,-0.5336914,-0.7449341,0.5507202,-0.21875,1.140625,0.359375
1695726145485,-0.5358887,-0.7481079,0.5438843,-0.078125,1.328125,0.53125
1695726145524,-0.5283203,-0.7481079,0.5487671,-0.421875,1.28125,0.0625
1695726145564,-0.5402832,-0.7439575,0.55462646,0.1875,1.046875,0.046875
1695726145606,-0.5332031,-0.7437134,0.5465698,-0.640625,1.21875,0.03125
1695726145644,-0.5292969,-0.7564087,0.55023193,-0.21875,0.90625,-0.234375
1695726145686,-0.5317383,-0.74713135,0.5492554,-0.15625,1.140625,-0.03125
1695726145724,-0.5300293,-0.74224854,0.55023193,-0.671875,1.09375,0.0625
1695726145764,-0.53808594,-0.7449341,0.5475464,-0.453125,0.9375,0.0
1695726145805,-0.53222656,-0.75445557,0.5499878,-0.46875,0.6875,-0.203125
1695726145845,-0.53686523,-0.753479,0.5541382,0.015625,1.078125,0.078125
1695726145885,-0.52685547,-0.7473755,0.5507202,-0.390625,1.359375,0.171875
1695726145944,-0.53149414,-0.7449341,0.5553589,-0.421875,1.265625,-0.0625
1695726145965,-0.54052734,-0.7456665,0.55023193,-0.390625,0.59375,0.234375
1695726145985,-0.5332031,-0.74664307,0.5475464,-0.203125,0.984375,-0.03125
1695726146024,-0.53271484,-0.74664307,0.55145264,-0.328125,1.375,-0.015625
1695726146064,-0.53466797,-0.7559204,0.5477905,-0.453125,0.890625,0.15625
1695726146104,-0.5344238,-0.7498169,0.5519409,-0.875,1.046875,0.1875
1695726146144,-0.5317383,-0.74786377,0.55340576,-0.40625,1.078125,0.0625
1695726146184,-0.5349121,-0.7481079,0.54901123,-0.5625,1.140625,0.09375
1695726146224,-0.5371094,-0.74713135,0.54901123,-0.59375,1.09375,-0.109375
1695726146263,-0.5280762,-0.7424927,0.55633545,-0.59375,0.96875,-0.09375
1695726146303,-0.53564453,-0.7481079,0.5512085,-0.546875,1.234375,-0.1875
1695726146343,-0.5366211,-0.74542236,0.5516968,-0.671875,1.109375,0.0625
1695726146384,-0.53271484,-0.75250244,0.5512085,-0.640625,1.328125,0.09375
1695726146424,-0.532959,-0.7402954,0.55267334,-0.625,1.296875,0.03125
1695726146463,-0.5283203,-0.7490845,0.5536499,-1.0,1.375,-0.15625
1695726146507,-0.5332031,-0.74713135,0.56073,-0.234375,1.46875,-0.046875
1695726146542,-0.5263672,-0.74835205,0.5553589,-0.703125,1.578125,-0.15625
1695726146582,-0.5390625,-0.75177,0.55584717,-1.046875,1.609375,-0.390625
1695726146628,-0.5354004,-0.74542236,0.5565796,-0.4375,1.375,-0.25
1695726146666,-0.52783203,-0.7341919,0.55755615,-0.703125,1.5625,-0.296875
1695726146702,-0.5344238,-0.73443604,0.5560913,-0.9375,1.53125,-0.25
1695726146743,-0.53222656,-0.73883057,0.56048584,-1.125,1.453125,-0.421875
1695726146785,-0.53564453,-0.7390747,0.56073,-0.765625,0.953125,-0.359375
1695726146823,-0.5336914,-0.7437134,0.5619507,-0.765625,1.296875,0.1875
1695726146864,-0.53125,-0.7383423,0.5626831,-0.640625,1.8125,0.0
1695726146904,-0.53637695,-0.73101807,0.56781006,-0.578125,1.65625,-0.125
1695726146944,-0.53027344,-0.7420044,0.5621948,-0.6875,1.15625,0.15625
1695726146985,-0.5317383,-0.73809814,0.5687866,-0.9375,1.625,-0.03125
1695726147024,-0.5354004,-0.7337036,0.56292725,-0.640625,1.5625,-0.1875
1695726147064,-0.53515625,-0.7444458,0.5663452,-0.921875,1.265625,-0.015625
1695726147104,-0.52685547,-0.7337036,0.5651245,-0.875,1.421875,0.015625
1695726147144,-0.5292969,-0.7371216,0.5722046,-0.640625,1.28125,-0.109375
1695726147185,-0.5324707,-0.73516846,0.5687866,-0.796875,1.171875,-0.09375
1695726147224,-0.5324707,-0.73638916,0.5758667,-0.796875,1.390625,-0.109375
1695726147305,-0.532959,-0.73394775,0.57440186,-0.890625,1.53125,-0.078125
1695726147307,-0.52856445,-0.73394775,0.57147217,-0.609375,1.546875,-0.234375
1695726147326,-0.5354004,-0.736145,0.57073975,-0.578125,1.515625,-0.078125
1695726147406,-0.53344727,-0.72784424,0.5758667,-0.65625,1.296875,-0.078125
1695726147410,-0.5283203,-0.73565674,0.5795288,-0.671875,1.234375,-0.078125
1695726147447,-0.53100586,-0.73687744,0.57318115,-0.640625,1.28125,-0.21875
1695726147484,-0.5366211,-0.736145,0.5753784,-0.609375,1.5625,-0.109375
1695726147544,-0.53344727,-0.73516846,0.572937,-0.75,1.578125,-0.234375
1695726147566,-0.529541,-0.7283325,0.5795288,-0.5,1.171875,-0.140625
1695726147604,-0.53564453,-0.7305298,0.586853,-0.1875,0.859375,0.046875
1695726147647,-0.529541,-0.7354126,0.5668335,-0.828125,1.25,-0.28125
1695726147687,-0.53930664,-0.7317505,0.57489014,-1.1875,1.453125,-0.59375
1695726147723,-0.53222656,-0.7317505,0.5819702,-0.359375,1.359375,-0.4375
1695726147764,-0.5397949,-0.7258911,0.5751343,-0.25,1.5625,-0.109375
1695726147803,-0.5319824,-0.73272705,0.5753784,-0.703125,1.5625,-0.28125
1695726147844,-0.5319824,-0.73272705,0.5819702,-0.8125,0.9375,-0.328125
1695726147885,-0.53637695,-0.7312622,0.57977295,-0.703125,0.96875,0.0625
1695726147924,-0.5300293,-0.7312622,0.58465576,-0.296875,1.046875,0.234375
1695726147968,-0.52783203,-0.725647,0.5831909,-0.546875,1.078125,-0.25
1695726148003,-0.53515625,-0.72369385,0.5812378,-0.546875,1.078125,-0.09375
1695726148043,-0.53466797,-0.7312622,0.5817261,-0.375,0.84375,0.140625
1695726148086,-0.53344727,-0.72735596,0.58465576,-0.3125,1.1875,0.078125
1695726148124,-0.53344727,-0.72857666,0.57855225,-0.359375,1.296875,0.078125
1695726148167,-0.53271484,-0.7276001,0.5812378,-0.203125,1.078125,0.234375
1695726148204,-0.53344727,-0.72906494,0.5824585,-0.171875,1.0625,0.078125
1695726148245,-0.529541,-0.7319946,0.5807495,-0.265625,1.078125,-0.0625
1695726148304,-0.5253906,-0.725647,0.5812378,-0.40625,1.046875,-0.125
1695726148324,-0.5341797,-0.7300415,0.58221436,-0.546875,0.9375,0.046875
1695726148363,-0.5300293,-0.7246704,0.5873413,-0.171875,0.90625,0.0
1695726148405,-0.53393555,-0.7280884,0.5824585,-0.25,0.78125,0.0625
1695726148458,-0.5341797,-0.7263794,0.5878296,-0.265625,1.0,-0.03125
1695726148483,-0.5317383,-0.7214966,0.58758545,-0.09375,0.75,0.15625
1695726148524,-0.5437012,-0.7293091,0.58270264,0.125,0.671875,0.234375
1695726148565,-0.5344238,-0.736145,0.5807495,0.0625,0.46875,0.125
1695726148584,-0.5378418,-0.7295532,0.57928467,0.171875,0.34375,0.21875
1695726148645,-0.5300293,-0.7268677,0.5778198,0.359375,0.296875,0.390625
1695726148665,-0.54174805,-0.7280884,0.5805054,0.28125,0.4375,0.34375
1695726148703,-0.53930664,-0.73638916,0.57196045,0.078125,0.375,0.53125
1695726148744,-0.5358887,-0.7329712,0.5739136,0.296875,0.078125,0.578125
1695726148783,-0.53027344,-0.7246704,0.5790405,0.671875,0.203125,0.484375
1695726148823,-0.53100586,-0.73272705,0.5704956,0.03125,0.21875,0.09375
1695726148864,-0.5354004,-0.7295532,0.5717163,-0.09375,0.703125,0.109375
1695726148904,-0.5397949,-0.7288208,0.5741577,0.375,0.390625,0.390625
1695726148944,-0.5402832,-0.7307739,0.57147217,0.125,0.390625,0.3125
1695726149005,-0.5366211,-0.7307739,0.5656128,0.109375,0.765625,0.1875
1695726149047,-0.5358887,-0.7366333,0.56536865,0.140625,0.3125,0.453125
1695726149064,-0.5354004,-0.7402954,0.5709839,0.03125,0.03125,0.484375
1695726149104,-0.53515625,-0.73931885,0.5648804,0.296875,0.625,0.625
1695726149145,-0.5341797,-0.7268677,0.56365967,0.234375,0.90625,0.390625
1695726149184,-0.5385742,-0.7366333,0.56829834,0.375,0.578125,0.609375
1695726149223,-0.53466797,-0.7373657,0.56463623,0.234375,0.171875,0.65625
1695726149264,-0.53344727,-0.7341919,0.56903076,0.0,0.765625,0.328125
1695726149303,-0.53344727,-0.737854,0.5634155,0.328125,0.71875,0.390625
1695726149343,-0.5319824,-0.74542236,0.5626831,0.0625,0.375,0.390625
1695726149383,-0.53149414,-0.7468872,0.55755615,-0.0625,0.359375,0.453125
1695726149423,-0.52905273,-0.7456665,0.55804443,-0.03125,0.328125,0.109375
1695726149466,-0.52734375,-0.74176025,0.55804443,-0.015625,0.609375,0.234375
1695726149505,-0.5422363,-0.7427368,0.55462646,-0.21875,0.546875,0.234375
1695726149545,-0.5383301,-0.7324829,0.5614624,-0.25,0.40625,0.3125
1695726149584,-0.53759766,-0.73931885,0.5543823,0.015625,0.671875,0.203125
1695726149624,-0.53637695,-0.74176025,0.55584717,0.09375,0.59375,0.421875
1695726149665,-0.53466797,-0.73931885,0.5553589,-0.03125,0.9375,0.359375
1695726149704,-0.53222656,-0.7449341,0.55389404,0.0,1.078125,0.234375
1695726149744,-0.5395508,-0.74542236,0.5602417,0.125,1.171875,0.296875
1695726149786,-0.53759766,-0.7449341,0.5536499,-0.28125,1.03125,0.125
1695726149824,-0.5349121,-0.7485962,0.5602417,0.21875,0.921875,0.140625
1695726149864,-0.53881836,-0.74664307,0.54901123,-0.296875,0.9375,-0.078125
1695726149883,-0.53100586,-0.75006104,0.5621948,-0.34375,0.890625,-0.0625
1695726149924,-0.54174805,-0.7432251,0.55682373,0.09375,0.734375,-0.03125
1695726149965,-0.5397949,-0.74053955,0.5602417,-0.109375,0.984375,0.03125
1695726150003,-0.5371094,-0.73565674,0.5512085,0.0625,0.90625,0.109375
1695726150044,-0.53222656,-0.74102783,0.55340576,-0.171875,0.578125,0.078125
1695726150084,-0.5344238,-0.74542236,0.55389404,-0.1875,0.4375,0.015625
1695726150124,-0.53930664,-0.7461548,0.5582886,0.1875,0.890625,0.515625
1695726150166,-0.5358887,-0.741272,0.5512085,-0.296875,1.015625,0.125
1695726150204,-0.5444336,-0.7451782,0.55877686,0.25,0.78125,0.28125
1695726150245,-0.5415039,-0.74591064,0.55145264,-0.203125,0.5,0.203125
1695726150285,-0.5341797,-0.74713135,0.5507202,-0.265625,1.234375,0.0625
1695726150324,-0.5332031,-0.7371216,0.54681396,-0.1875,1.234375,0.171875
1695726150367,-0.5336914,-0.7476196,0.5477905,-0.703125,1.15625,0.015625
1695726150404,-0.5378418,-0.74835205,0.5529175,-0.46875,0.953125,0.078125
1695726150445,-0.5341797,-0.7437134,0.555603,-0.390625,1.109375,-0.03125
1695726150484,-0.54052734,-0.7402954,0.559021,-0.3125,1.15625,-0.046875
1695726150525,-0.5397949,-0.74176025,0.55340576,-0.625,0.96875,-0.09375
1695726150566,-0.54174805,-0.74224854,0.55755615,-0.703125,0.890625,0.09375
1695726150605,-0.53222656,-0.74176025,0.55389404,-0.640625,1.203125,0.125
1695726150644,-0.5378418,-0.736145,0.55682373,-0.203125,1.109375,0.03125
1695726150703,-0.5395508,-0.73931885,0.55804443,-0.5625,1.234375,0.015625
1695726150726,-0.5361328,-0.74884033,0.54974365,-0.765625,1.421875,0.09375
1695726150764,-0.5366211,-0.7415161,0.56170654,-0.625,1.5625,0.015625
1695726150824,-0.5395508,-0.73638916,0.5602417,0.03125,1.765625,0.171875
1695726150844,-0.53222656,-0.739563,0.55584717,-0.890625,1.703125,-0.359375
1695726150885,-0.5415039,-0.7424927,0.56243896,-0.78125,1.53125,-0.34375
1695726150925,-0.5383301,-0.7383423,0.55804443,-0.71875,1.28125,-0.390625
1695726150964,-0.53564453,-0.7385864,0.55877686,-0.90625,1.53125,-0.40625
1695726151004,-0.5344238,-0.73394775,0.55999756,-1.203125,2.171875,-0.703125
1695726151044,-0.5444336,-0.73565674,0.5680542,-0.875,1.421875,-0.390625
1695726151085,-0.5358887,-0.7354126,0.56365967,-0.515625,1.40625,0.0625
1695726151124,-0.53222656,-0.73687744,0.5680542,-0.53125,1.546875,0.203125
1695726151165,-0.53808594,-0.7307739,0.5614624,-0.8125,1.578125,-0.15625
1695726151184,-0.5371094,-0.73223877,0.5673218,-0.78125,1.328125,-0.03125
1695726151225,-0.5407715,-0.73638916,0.57196045,-0.65625,1.21875,0.03125
1695726151264,-0.53466797,-0.7312622,0.57025146,-0.671875,1.875,-0.171875
1695726151307,-0.5395508,-0.7337036,0.57318115,-0.296875,1.296875,0.0625
1695726151343,-0.53222656,-0.7312622,0.5661011,-0.84375,0.890625,0.171875
1695726151384,-0.5373535,-0.7383423,0.56536865,-0.734375,1.328125,0.015625
1695726151424,-0.5354004,-0.7359009,0.5685425,-0.453125,1.421875,-0.09375
1695726151463,-0.5390625,-0.7307739,0.5697632,-0.703125,1.125,0.0
1695726151504,-0.5371094,-0.73272705,0.5753784,-0.796875,1.296875,0.078125
1695726151588,-0.5358887,-0.73443604,0.5722046,-0.75,1.375,-0.15625
1695726151592,-0.5361328,-0.7300415,0.57318115,-0.609375,1.5625,-0.28125
1695726151625,-0.5395508,-0.7359009,0.572937,-0.671875,1.765625,-0.09375
1695726151664,-0.5332031,-0.7293091,0.57025146,-0.46875,1.65625,-0.25
1695726151706,-0.5373535,-0.7288208,0.571228,-0.671875,1.46875,-0.140625
1695726151765,-0.53271484,-0.7334595,0.57244873,-0.734375,1.34375,-0.140625
1695726151784,-0.5336914,-0.7293091,0.57855225,-0.53125,1.15625,0.015625
1695726151822,-0.53759766,-0.73101807,0.5692749,-0.484375,1.125,-0.140625
1695726151862,-0.53125,-0.73321533,0.56951904,-1.296875,1.3125,-0.578125
1695726151904,-0.5361328,-0.7337036,0.57733154,-1.125,0.84375,-0.375
1695726151943,-0.5397949,-0.7354126,0.5783081,-0.703125,1.03125,-0.28125
1695726151984,-0.5378418,-0.7258911,0.57733154,-0.703125,1.328125,-0.359375
1695726152024,-0.5371094,-0.7268677,0.5775757,-0.9375,1.359375,-0.375
1695726152065,-0.53564453,-0.72369385,0.57684326,-0.65625,1.171875,-0.078125
1695726152105,-0.5344238,-0.7217407,0.5844116,-0.1875,1.171875,0.21875
1695726152144,-0.53759766,-0.7293091,0.58221436,-0.375,1.4375,0.125
1695726152204,-0.54418945,-0.7283325,0.574646,-0.609375,1.40625,-0.265625
1695726152245,-0.5397949,-0.72662354,0.5844116,-0.15625,1.09375,-0.0625
1695726152264,-0.5397949,-0.72613525,0.5817261,-0.34375,1.171875,0.125
1695726152304,-0.53466797,-0.72979736,0.5805054,-0.453125,1.203125,0.125
1695726152344,-0.53759766,-0.72320557,0.5844116,-0.21875,1.234375,0.109375
1695726152388,-0.532959,-0.72491455,0.5848999,-0.484375,1.046875,0.203125
1695726152426,-0.5390625,-0.723938,0.5861206,-0.296875,0.921875,0.1875
1695726152485,-0.5407715,-0.723938,0.57733154,0.0625,0.65625,0.21875
1695726152488,-0.5385742,-0.7300415,0.57977295,-0.015625,0.484375,0.15625
1695726152542,-0.5437012,-0.72906494,0.58343506,0.109375,0.265625,0.203125
1695726152563,-0.5402832,-0.72857666,0.5800171,0.09375,0.3125,0.28125
1695726152603,-0.5395508,-0.73028564,0.5783081,0.28125,0.59375,0.140625
1695726152644,-0.54248047,-0.7312622,0.5778198,0.421875,-0.046875,0.59375
1695726152684,-0.5410156,-0.72979736,0.5726929,0.265625,0.28125,0.484375
1695726152726,-0.5432129,-0.7280884,0.57244873,0.125,0.484375,0.265625
1695726152783,-0.5449219,-0.7271118,0.57366943,0.34375,0.515625,0.46875
1695726152802,-0.53466797,-0.7305298,0.576355,0.28125,-0.015625,0.453125
1695726152844,-0.53564453,-0.7324829,0.57489014,0.640625,0.296875,0.390625
1695726152887,-0.53344727,-0.7334595,0.5673218,-0.125,0.578125,0.171875
1695726152944,-0.54052734,-0.73321533,0.5717163,-0.21875,0.65625,0.25
1695726152964,-0.5427246,-0.73101807,0.57196045,0.5625,0.1875,0.25
1695726153004,-0.53930664,-0.7268677,0.56243896,-0.1875,0.09375,0.109375
1695726153042,-0.5354004,-0.7276001,0.5639038,-0.25,0.78125,0.15625
1695726153086,-0.5395508,-0.7354126,0.5631714,-0.125,0.3125,0.109375
1695726153123,-0.54296875,-0.7415161,0.57073975,0.078125,-0.09375,0.53125
1695726153204,-0.53637695,-0.737854,0.5639038,0.28125,0.53125,0.484375
1695726153206,-0.5371094,-0.7317505,0.5631714,-0.0625,1.0625,0.328125
1695726153265,-0.5407715,-0.73394775,0.56463623,0.203125,0.640625,0.25
1695726153284,-0.5439453,-0.7371216,0.56414795,0.15625,0.515625,0.484375
1695726153344,-0.53881836,-0.73516846,0.55999756,-0.078125,0.6875,0.171875
1695726153364,-0.54174805,-0.7349243,0.5643921,0.109375,0.90625,0.28125
1695726153409,-0.5349121,-0.73516846,0.55755615,-0.015625,0.78125,0.34375
1695726153445,-0.53125,-0.7329712,0.5565796,0.03125,0.4375,0.28125
1695726153485,-0.5385742,-0.73931885,0.5582886,0.125,0.6875,0.390625
1695726153524,-0.53393555,-0.73687744,0.56658936,0.90625,1.125,0.515625
1695726153565,-0.5390625,-0.7383423,0.5570679,0.15625,1.328125,0.296875
1695726153606,-0.54003906,-0.74346924,0.55145264,-0.140625,0.890625,0.234375
1695726153648,-0.5397949,-0.74176025,0.56048584,-0.234375,0.578125,0.265625
1695726153686,-0.53930664,-0.7390747,0.55877686,-0.4375,0.859375,0.328125
1695726153724,-0.5410156,-0.7398071,0.56463623,-0.25,0.625,0.34375
1695726153805,-0.5341797,-0.7390747,0.56048584,-0.140625,0.734375,0.140625
1695726153807,-0.54296875,-0.7432251,0.56048584,-0.03125,0.9375,0.25
1695726153822,-0.53271484,-0.73883057,0.56121826,0.234375,1.296875,0.453125
1695726153864,-0.5361328,-0.74176025,0.5465698,-0.4375,1.34375,-0.015625
1695726153925,-0.5390625,-0.7473755,0.55389404,-0.421875,0.828125,0.125
1695726153944,-0.5358887,-0.7427368,0.559021,-0.046875,0.71875,-0.265625
1695726154006,-0.529541,-0.73394775,0.55682373,-0.3125,0.890625,-0.28125
1695726154023,-0.5344238,-0.7337036,0.55584717,-0.6875,0.703125,-0.203125
1695726154064,-0.54418945,-0.7444458,0.5578003,-0.8125,0.21875,-0.25
1695726154104,-0.53759766,-0.7373657,0.56073,-0.515625,0.953125,-0.078125
1695726154144,-0.5354004,-0.7439575,0.56463623,-0.328125,1.125,0.125
1695726154184,-0.5407715,-0.7280884,0.55804443,-0.59375,1.3125,-0.140625
1695726154224,-0.54125977,-0.7385864,0.55389404,-0.453125,0.96875,0.015625
1695726154265,-0.5415039,-0.7432251,0.55804443,-0.765625,0.703125,-0.03125
1695726154303,-0.5361328,-0.73321533,0.5602417,-0.640625,1.484375,-0.1875
1695726154345,-0.5395508,-0.7354126,0.5595093,-0.625,1.125,-0.203125
1695726154384,-0.54125977,-0.73883057,0.5661011,-0.640625,1.015625,-0.09375
1695726154425,-0.54174805,-0.73150635,0.5661011,-0.359375,1.078125,0.09375
1695726154464,-0.5354004,-0.73516846,0.55926514,-0.703125,0.90625,-0.078125
1695726154504,-0.53222656,-0.7329712,0.5585327,-0.75,1.125,-0.140625
1695726154544,-0.5456543,-0.73516846,0.56414795,-0.53125,1.375,-0.03125
1695726154583,-0.54589844,-0.72979736,0.5643921,-0.671875,1.359375,-0.09375
1695726154623,-0.5402832,-0.73760986,0.5609741,-0.8125,1.328125,-0.296875
1695726154664,-0.54418945,-0.7324829,0.56536865,-0.640625,1.3125,-0.375
1695726154707,-0.5373535,-0.7300415,0.5668335,-0.671875,1.28125,-0.03125
1695726154746,-0.54003906,-0.7317505,0.56903076,-0.71875,1.40625,0.0
1695726154784,-0.54345703,-0.7293091,0.56170654,-0.859375,1.328125,-0.1875
1695726154824,-0.5444336,-0.7295532,0.56414795,-0.59375,1.25,-0.140625
1695726154864,-0.53637695,-0.73809814,0.5692749,-0.15625,1.234375,-0.03125
1695726154906,-0.5361328,-0.7305298,0.57025146,-0.53125,1.515625,-0.40625
1695726154964,-0.54541016,-0.73223877,0.5661011,-1.1875,1.515625,-0.59375
1695726154984,-0.5444336,-0.73638916,0.5722046,-0.40625,1.296875,-0.5
1695726155025,-0.5415039,-0.7276001,0.5726929,-0.59375,1.578125,-0.1875
1695726155084,-0.5373535,-0.7288208,0.572937,-0.484375,1.890625,-0.328125
1695726155104,-0.54174805,-0.7305298,0.5692749,-0.59375,1.96875,-0.3125
1695726155124,-0.5383301,-0.7317505,0.57244873,-0.578125,1.125,-0.328125
1695726155165,-0.5402832,-0.73394775,0.5739136,-0.25,1.078125,0.0625
1695726155205,-0.5371094,-0.72491455,0.5770874,-0.671875,1.484375,-0.015625
1695726155244,-0.54541016,-0.72198486,0.56536865,-0.828125,1.53125,-0.34375
1695726155285,-0.54663086,-0.7312622,0.57440186,-0.234375,0.984375,-0.03125
1695726155344,-0.54003906,-0.7263794,0.57244873,-0.34375,1.140625,0.078125
1695726155364,-0.5390625,-0.7276001,0.57366943,-0.6875,1.453125,-0.046875
1695726155403,-0.54003906,-0.7349243,0.58221436,-0.46875,1.296875,0.03125
1695726155444,-0.54125977,-0.7312622,0.5717163,-0.515625,1.25,-0.078125
1695726155484,-0.5378418,-0.72369385,0.5800171,-0.484375,1.140625,-0.09375
1695726155524,-0.54467773,-0.72247314,0.57489014,-0.375,1.234375,-0.078125
1695726155565,-0.54174805,-0.7258911,0.574646,-0.625,1.140625,0.078125
1695726155603,-0.54541016,-0.7227173,0.5734253,-0.484375,1.234375,-0.015625
1695726155645,-0.5415039,-0.7214966,0.57366943,-0.5,1.09375,-0.078125
1695726155685,-0.54663086,-0.7258911,0.5775757,-0.390625,1.1875,0.046875
1695726155724,-0.5366211,-0.72784424,0.5770874,-0.578125,1.0,0.03125
1695726155766,-0.5439453,-0.72003174,0.5775757,-0.359375,1.046875,0.09375
1695726155804,-0.5410156,-0.72125244,0.5783081,-0.515625,1.046875,-0.046875
1695726155848,-0.546875,-0.7246704,0.58343506,-0.390625,1.125,-0.09375
1695726155884,-0.5378418,-0.72442627,0.57611084,-0.328125,0.859375,-0.109375
1695726155926,-0.5449219,-0.7173462,0.57733154,-0.453125,1.03125,0.0625
1695726155986,-0.546875,-0.7263794,0.5778198,-0.296875,1.296875,-0.03125
1695726156005,-0.5410156,-0.7263794,0.5805054,-0.40625,1.25,0.125
1695726156045,-0.5427246,-0.72442627,0.5844116,0.03125,0.890625,0.25
1695726156084,-0.54345703,-0.723938,0.5753784,-0.265625,0.828125,0.0625
1695726156124,-0.5336914,-0.7263794,0.5765991,-0.546875,1.09375,-0.3125
1695726156163,-0.5463867,-0.723938,0.5819702,-0.171875,0.78125,0.03125
1695726156202,-0.546875,-0.7210083,0.58026123,0.0625,0.453125,0.171875
1695726156245,-0.5449219,-0.7227173,0.5831909,0.046875,0.6875,0.140625
1695726156284,-0.54125977,-0.72613525,0.5775757,-0.265625,0.515625,0.078125
1695726156365,-0.5437012,-0.7258911,0.5770874,0.15625,0.21875,0.359375
1695726156368,-0.54248047,-0.7283325,0.58148193,0.46875,0.328125,0.609375
1695726156404,-0.54296875,-0.725647,0.5783081,0.09375,0.5,0.21875
1695726156424,-0.54589844,-0.71832275,0.57366943,0.125,0.609375,0.234375
1695726156464,-0.5463867,-0.7312622,0.5741577,0.25,0.09375,0.46875
1695726156503,-0.548584,-0.7268677,0.57855225,0.234375,0.296875,0.46875
1695726156545,-0.5476074,-0.7241821,0.5692749,-0.09375,0.796875,0.328125
1695726156585,-0.5402832,-0.723938,0.56536865,0.375,0.28125,0.421875
1695726156624,-0.5444336,-0.7337036,0.5697632,0.21875,0.1875,0.46875
1695726156667,-0.5415039,-0.73028564,0.5680542,0.015625,0.421875,0.234375
1695726156704,-0.54467773,-0.73516846,0.5685425,0.15625,0.53125,0.34375
1695726156764,-0.54248047,-0.7319946,0.5639038,0.109375,0.359375,0.390625
1695726156784,-0.54467773,-0.7329712,0.5685425,0.09375,0.53125,0.5
1695726156824,-0.54418945,-0.7324829,0.56829834,0.078125,0.40625,0.46875
1695726156870,-0.545166,-0.73101807,0.56121826,-0.125,0.4375,0.28125
1695726156904,-0.54541016,-0.736145,0.56170654,-0.078125,0.609375,0.484375
1695726156945,-0.5437012,-0.737854,0.5597534,-0.078125,0.484375,0.265625
1695726156983,-0.5419922,-0.736145,0.56243896,-0.015625,0.46875,0.234375
1695726157024,-0.5407715,-0.73272705,0.5595093,-0.046875,0.796875,0.25
1695726157063,-0.5419922,-0.73150635,0.55755615,-0.09375,0.65625,0.234375
1695726157103,-0.54296875,-0.72735596,0.55389404,-0.421875,0.71875,0.484375
1695726157145,-0.54663086,-0.7415161,0.5529175,-0.421875,0.71875,0.328125
1695726157185,-0.54418945,-0.7324829,0.55682373,-0.140625,1.234375,0.046875
1695726157223,-0.5500488,-0.7329712,0.5651245,-0.75,1.28125,-0.171875
1695726157264,-0.55078125,-0.7407837,0.56658936,-0.234375,1.0625,-0.15625
1695726157304,-0.5480957,-0.73150635,0.56463623,-0.203125,0.96875,-0.078125
1695726157345,-0.54125977,-0.7276001,0.557312,-0.09375,1.078125,0.09375
1695726157403,-0.54174805,-0.7341919,0.56463623,0.453125,0.9375,-0.125
1695726157424,-0.54833984,-0.7346802,0.56414795,0.578125,0.734375,0.21875
1695726157464,-0.5422363,-0.7349243,0.56048584,0.953125,1.125,0.46875
1695726157504,-0.545166,-0.73760986,0.5578003,0.625,1.15625,0.578125
1695726157565,-0.5439453,-0.72784424,0.55755615,0.5,0.640625,0.25
1695726157584,-0.55078125,-0.7398071,0.5565796,0.328125,0.703125,0.5625
1695726157625,-0.5456543,-0.74176025,0.5595093,0.296875,0.65625,0.453125
1695726157707,-0.54418945,-0.7373657,0.5512085,-0.0625,0.921875,0.296875
1695726157711,-0.53881836,-0.73638916,0.5494995,-0.171875,0.625,0.390625
1695726157723,-0.54663086,-0.7444458,0.5531616,0.09375,0.609375,0.5625
1695726157784,-0.54663086,-0.74005127,0.55755615,0.125,0.78125,0.578125
1695726157824,-0.53808594,-0.7354126,0.54559326,-0.875,0.46875,0.078125
1695726157905,-0.53881836,-0.739563,0.5453491,-0.515625,0.609375,0.15625
1695726157907,-0.5373535,-0.74468994,0.55633545,-0.296875,0.796875,0.1875
1695726157923,-0.5427246,-0.7359009,0.54974365,-0.390625,1.0,-0.046875
1695726157964,-0.54296875,-0.73883057,0.55511475,-0.25,0.984375,0.125
1695726158004,-0.5397949,-0.737854,0.5536499,-0.28125,1.171875,0.0625
1695726158044,-0.54296875,-0.73760986,0.55218506,-0.46875,1.21875,0.046875
1695726158105,-0.5419922,-0.73883057,0.55145264,-0.5,1.234375,-0.0625
1695726158125,-0.5397949,-0.741272,0.55096436,-0.421875,1.125,0.0
1695726158171,-0.5437012,-0.7385864,0.557312,0.078125,1.15625,-0.140625
1695726158202,-0.5397949,-0.72735596,0.5475464,-0.390625,1.4375,0.0625
1695726158244,-0.54663086,-0.7346802,0.5524292,-0.640625,1.234375,-0.09375
1695726158284,-0.5461426,-0.74224854,0.55633545,-0.109375,0.859375,0.015625
1695726158324,-0.5444336,-0.73101807,0.55389404,-0.828125,1.328125,-0.21875
1695726158385,-0.54052734,-0.72906494,0.5531616,-0.53125,1.21875,-0.03125
1695726158403,-0.54418945,-0.7359009,0.56073,-0.59375,0.9375,-0.09375
1695726158449,-0.5461426,-0.739563,0.5578003,-0.859375,0.765625,-0.078125
1695726158485,-0.54345703,-0.7383423,0.5529175,-0.3125,1.21875,0.265625
1695726158523,-0.5439453,-0.7402954,0.557312,-0.59375,1.53125,-0.046875
1695726158584,-0.54785156,-0.72735596,0.5643921,-0.4375,1.65625,-0.21875
1695726158604,-0.5473633,-0.73809814,0.555603,-0.328125,1.078125,0.09375
1695726158645,-0.5419922,-0.73883057,0.56073,-0.390625,1.1875,-0.171875
1695726158684,-0.54589844,-0.7317505,0.5578003,-0.578125,1.859375,-0.25
1695726158725,-0.54418945,-0.73931885,0.5531616,-0.625,1.421875,-0.078125
1695726158765,-0.546875,-0.7324829,0.55462646,-0.625,1.25,0.015625
1695726158804,-0.54296875,-0.73223877,0.55926514,-0.6875,1.21875,-0.265625
1695726158864,-0.5419922,-0.736145,0.55877686,-0.828125,1.359375,-0.4375
1695726158883,-0.5515137,-0.7295532,0.57318115,-1.03125,1.5625,-0.0625
1695726158923,-0.546875,-0.7334595,0.56829834,-0.59375,1.421875,0.078125
1695726158985,-0.53881836,-0.7366333,0.5602417,-0.75,1.421875,-0.203125
1695726159026,-0.545166,-0.7324829,0.56463623,-0.703125,1.546875,-0.078125
1695726159027,-0.5498047,-0.7334595,0.5704956,-0.75,1.328125,-0.078125
1695726159063,-0.53881836,-0.73028564,0.56365967,-0.5,1.421875,-0.171875
1695726159104,-0.5407715,-0.7319946,0.5687866,-0.390625,1.609375,-0.21875
1695726159146,-0.5419922,-0.7258911,0.56243896,-0.390625,1.671875,0.015625
1695726159183,-0.54248047,-0.7271118,0.57196045,-0.453125,1.328125,0.046875
1695726159226,-0.5427246,-0.725647,0.5619507,-0.390625,1.234375,0.046875
1695726159266,-0.5410156,-0.7307739,0.56170654,-1.328125,1.4375,-0.53125
1695726159324,-0.54467773,-0.72857666,0.5722046,-1.03125,1.234375,-0.640625
1695726159346,-0.5449219,-0.7317505,0.5717163,-0.859375,1.203125,-0.3125
1695726159384,-0.53637695,-0.72247314,0.5651245,-1.078125,1.453125,-0.4375
1695726159423,-0.5402832,-0.7276001,0.5700073,-1.046875,1.4375,-0.25
1695726159466,-0.54589844,-0.7283325,0.576355,-0.609375,1.34375,0.140625
1695726159503,-0.5444336,-0.72320557,0.57733154,-0.28125,1.640625,0.328125
1695726159546,-0.5397949,-0.7258911,0.5739136,-0.546875,1.421875,0.171875
1695726159585,-0.5385742,-0.72052,0.57318115,-0.671875,1.3125,-0.34375
1695726159626,-0.546875,-0.7202759,0.57684326,-0.4375,1.375,-0.15625
1695726159664,-0.5456543,-0.7263794,0.5775757,-0.34375,1.078125,0.125
1695726159703,-0.5437012,-0.72003174,0.5787964,-0.546875,1.671875,-0.109375
1695726159748,-0.5427246,-0.7283325,0.5790405,-0.4375,1.28125,-0.03125
1695726159784,-0.5437012,-0.72491455,0.5795288,-0.46875,1.34375,0.203125
1695726159824,-0.5402832,-0.72662354,0.57562256,-0.53125,1.265625,0.0625
1695726159886,-0.54003906,-0.72125244,0.57489014,-0.5,1.0625,0.015625
1695726159905,-0.5456543,-0.7241821,0.57928467,-0.515625,0.984375,0.078125
1695726159964,-0.5395508,-0.7251587,0.5739136,-0.5625,1.140625,-0.078125
1695726159985,-0.54248047,-0.71881104,0.5751343,-0.46875,1.109375,-0.046875
1695726160024,-0.5427246,-0.7180786,0.576355,-0.390625,0.921875,-0.109375
1695726160067,-0.5419922,-0.7180786,0.58221436,-0.375,1.0625,-0.0625
1695726160104,-0.54174805,-0.7214966,0.5775757,-0.484375,1.078125,-0.046875
1695726160143,-0.54248047,-0.7197876,0.5812378,-0.5,1.015625,-0.09375
1695726160184,-0.54418945,-0.7173462,0.5841675,-0.25,1.0625,0.09375
1695726160226,-0.5390625,-0.72198486,0.5819702,-0.3125,1.15625,0.09375
1695726160265,-0.5422363,-0.7214966,0.5758667,-0.625,1.0,-0.015625
1695726160304,-0.53808594,-0.72076416,0.5841675,-0.546875,1.3125,0.0
1695726160345,-0.5505371,-0.72198486,0.5817261,-0.46875,0.78125,-0.03125
1695726160364,-0.5439453,-0.72198486,0.58148193,0.21875,0.8125,0.21875
1695726160403,-0.54345703,-0.72076416,0.5829468,-0.828125,1.09375,-0.203125
1695726160445,-0.5461426,-0.725647,0.5824585,-0.59375,1.1875,-0.296875
1695726160484,-0.5432129,-0.7217407,0.58514404,-0.3125,1.09375,-0.109375
1695726160526,-0.54174805,-0.7161255,0.58026123,-0.46875,1.140625,0.0
1695726160566,-0.5463867,-0.7210083,0.5807495,-0.6875,1.15625,-0.265625
1695726160604,-0.54589844,-0.725647,0.58636475,-0.328125,0.875,-0.0625
1695726160644,-0.5444336,-0.71710205,0.5878296,-0.171875,0.953125,0.25
1695726160682,-0.5437012,-0.71539307,0.59198,0.0,0.953125,0.359375
1695726160724,-0.5422363,-0.7190552,0.58514404,-0.125,0.578125,0.078125
1695726160764,-0.5432129,-0.7217407,0.5841675,-0.046875,0.3125,0.203125
1695726160824,-0.54785156,-0.7197876,0.58270264,0.265625,0.234375,0.203125
1695726160844,-0.5427246,-0.7217407,0.5819702,0.171875,0.6875,0.328125
1695726160884,-0.54345703,-0.72198486,0.5778198,0.265625,0.3125,0.46875
1695726160924,-0.5432129,-0.72369385,0.56903076,0.21875,0.34375,0.4375
1695726160969,-0.5476074,-0.723938,0.5758667,-0.078125,0.078125,0.3125
1695726161003,-0.5437012,-0.7202759,0.57440186,0.046875,0.375,0.296875
1695726161043,-0.54541016,-0.7258911,0.5783081,-0.046875,0.109375,0.21875
1695726161083,-0.54663086,-0.72247314,0.57318115,-0.140625,0.296875,0.359375
1695726161122,-0.54663086,-0.72491455,0.576355,0.125,0.4375,0.234375
1695726161165,-0.5463867,-0.7217407,0.57196045,0.140625,0.5625,0.5
1695726161204,-0.5527344,-0.7258911,0.56951904,0.0,0.65625,0.5625
1695726161244,-0.55200195,-0.722229,0.5704956,0.09375,0.375,0.359375
1695726161283,-0.5463867,-0.72735596,0.57244873,0.109375,0.421875,0.46875
1695726161326,-0.5461426,-0.72320557,0.5692749,0.171875,0.625,0.359375
1695726161363,-0.54663086,-0.73687744,0.5634155,-0.15625,0.546875,0.328125
1695726161403,-0.5456543,-0.7263794,0.5700073,0.015625,0.71875,0.546875
1695726161444,-0.545166,-0.7324829,0.5673218,0.078125,0.578125,0.515625
1695726161484,-0.5515137,-0.7268677,0.56585693,0.59375,0.734375,0.40625
1695726161524,-0.5407715,-0.7293091,0.56414795,-0.578125,1.203125,0.046875
1695726161586,-0.55078125,-0.72857666,0.572937,0.078125,0.953125,0.25
1695726161603,-0.55249023,-0.7312622,0.5680542,0.171875,0.546875,0.203125
1695726161625,-0.5493164,-0.72491455,0.56536865,-0.140625,0.5625,0.140625
1695726161665,-0.5463867,-0.7288208,0.5582886,-0.15625,0.828125,0.09375
1695726161705,-0.54541016,-0.7295532,0.56536865,-0.03125,0.484375,0.28125
1695726161745,-0.54589844,-0.72784424,0.5663452,-0.203125,0.578125,0.359375
1695726161784,-0.54418945,-0.7317505,0.56121826,0.140625,0.734375,0.515625
1695726161826,-0.54711914,-0.725647,0.5663452,0.234375,0.8125,0.15625
1695726161884,-0.55249023,-0.72979736,0.5651245,0.421875,0.59375,0.40625
1695726161908,-0.545166,-0.7307739,0.56365967,-0.21875,0.609375,0.3125
1695726161944,-0.54785156,-0.73565674,0.5597534,0.1875,1.171875,0.203125
1695726161985,-0.5449219,-0.7271118,0.5661011,0.234375,0.875,0.234375
1695726162026,-0.54711914,-0.73394775,0.5582886,-0.125,0.609375,0.421875
1695726162105,-0.5437012,-0.7349243,0.55804443,-0.21875,0.9375,0.265625
1695726162108,-0.5437012,-0.7334595,0.56121826,-0.046875,0.78125,0.125
1695726162145,-0.5480957,-0.72979736,0.56243896,-0.1875,0.9375,0.265625
1695726162184,-0.5510254,-0.73565674,0.56073,-0.3125,1.109375,0.28125
1695726162226,-0.5449219,-0.7300415,0.5560913,0.109375,1.109375,0.3125
1695726162264,-0.5427246,-0.739563,0.56170654,-0.125,0.9375,0.171875
1695726162304,-0.5488281,-0.7346802,0.5585327,-0.15625,0.921875,0.21875
1695726162345,-0.548584,-0.7334595,0.56292725,-0.125,0.953125,0.09375
1695726162384,-0.5480957,-0.7319946,0.56073,-0.125,0.984375,0.234375
1695726162445,-0.54711914,-0.73272705,0.5565796,-0.4375,0.984375,0.15625
1695726162464,-0.5415039,-0.73443604,0.559021,-0.046875,0.90625,0.25
1695726162506,-0.54467773,-0.72662354,0.5519409,-0.34375,1.21875,0.0
1695726162544,-0.5480957,-0.7359009,0.5602417,-0.671875,1.3125,-0.140625
1695726162603,-0.5498047,-0.73809814,0.56585693,-0.125,0.875,0.046875
1695726162625,-0.5402832,-0.7295532,0.5595093,-0.8125,1.171875,-0.1875
1695726162685,-0.54467773,-0.7251587,0.55023193,-0.6875,1.09375,-0.15625
1695726162744,-0.5432129,-0.73687744,0.5578003,-0.796875,0.875,-0.15625
1695726162746,-0.5444336,-0.7424927,0.5631714,-0.703125,0.828125,-0.140625
1695726162783,-0.545166,-0.7307739,0.5648804,-0.328125,1.234375,0.125
1695726162864,-0.5410156,-0.7366333,0.5634155,-0.3125,1.421875,0.0625
1695726162866,-0.54663086,-0.723938,0.5614624,-0.703125,1.484375,-0.09375
1695726162924,-0.5473633,-0.7346802,0.5609741,-0.4375,1.28125,-0.03125
1695726162945,-0.546875,-0.7334595,0.5634155,-0.71875,1.328125,-0.078125
1695726162985,-0.5427246,-0.7305298,0.56536865,-0.671875,1.984375,-0.046875
1695726163005,-0.54541016,-0.7317505,0.5634155,-0.8125,1.375,0.015625
1695726163054,-0.54467773,-0.7329712,0.57025146,-0.875,1.328125,0.015625
1695726163082,-0.5480957,-0.73394775,0.5668335,-0.78125,1.3125,-0.15625
1695726163124,-0.546875,-0.72662354,0.56048584,-0.609375,1.5,-0.078125
1695726163183,-0.545166,-0.73101807,0.5722046,-0.765625,1.328125,-0.03125
1695726163204,-0.54345703,-0.73150635,0.5717163,-0.75,1.296875,-0.078125
1695726163244,-0.5432129,-0.7280884,0.57440186,-0.5,1.171875,-0.15625
1695726163283,-0.54467773,-0.7271118,0.57366943,-0.609375,1.0625,-0.25
1695726163325,-0.54956055,-0.72320557,0.5739136,-0.640625,1.546875,-0.1875
1695726163364,-0.5437012,-0.7283325,0.56585693,-0.59375,1.59375,-0.328125
1695726163404,-0.5534668,-0.7280884,0.56536865,-0.875,1.734375,-0.15625
1695726163444,-0.5444336,-0.7293091,0.576355,-0.5625,1.484375,0.015625
1695726163484,-0.54541016,-0.7276001,0.5805054,-0.03125,1.265625,0.046875
1695726163524,-0.54345703,-0.7293091,0.5697632,-0.796875,1.59375,-0.46875
1695726163564,-0.5476074,-0.7197876,0.5770874,-0.984375,1.4375,-0.359375
1695726163604,-0.54003906,-0.72735596,0.57489014,-0.609375,1.140625,-0.453125
1695726163644,-0.5415039,-0.7202759,0.5778198,-0.78125,1.234375,-0.265625
1695726163684,-0.54541016,-0.7192993,0.5741577,-0.75,1.46875,-0.5
1695726163726,-0.54711914,-0.7214966,0.57806396,-1.09375,1.3125,-0.4375
1695726163764,-0.54785156,-0.7210083,0.5812378,-0.765625,1.046875,-0.0625
1695726163804,-0.54418945,-0.71832275,0.58026123,-0.453125,1.328125,0.125
1695726163843,-0.5422363,-0.71588135,0.5829468,-0.640625,1.5625,-0.140625
1695726163883,-0.54833984,-0.7217407,0.5831909,-0.796875,1.21875,-0.21875
1695726163924,-0.54785156,-0.72320557,0.5841675,-0.34375,0.875,0.140625
1695726163964,-0.5444336,-0.72052,0.58221436,-0.34375,1.515625,0.0625
1695726164004,-0.54052734,-0.7185669,0.5817261,-0.5625,1.515625,-0.09375
1695726164043,-0.5397949,-0.7210083,0.5817261,-0.515625,1.265625,0.125
1695726164082,-0.54052734,-0.7251587,0.5812378,-0.421875,1.140625,0.203125
1695726164124,-0.5419922,-0.72442627,0.58026123,-0.484375,1.15625,0.046875
1695726164163,-0.54125977,-0.72198486,0.5812378,-0.5,0.96875,-0.015625
1695726164204,-0.546875,-0.72247314,0.58148193,-0.40625,0.921875,-0.046875
1695726164225,-0.54052734,-0.7227173,0.5861206,-0.265625,0.859375,-0.046875
1695726164265,-0.5437012,-0.7173462,0.5856323,-0.453125,1.078125,-0.0625
1695726164325,-0.5419922,-0.7168579,0.5812378,-0.484375,1.109375,0.046875
1695726164344,-0.54833984,-0.7139282,0.5861206,-0.40625,1.1875,0.03125
1695726164383,-0.54541016,-0.7229614,0.5848999,-0.21875,1.0625,-0.125
1695726164445,-0.548584,-0.72320557,0.5775757,-0.3125,1.03125,0.09375
1695726164506,-0.5422363,-0.71661377,0.58221436,-0.328125,1.21875,0.09375
1695726164508,-0.5432129,-0.723938,0.58587646,-0.34375,1.109375,0.21875
1695726164543,-0.5480957,-0.71417236,0.58636475,-0.28125,1.25,0.046875
1695726164584,-0.54589844,-0.7151489,0.5805054,-0.453125,1.125,0.109375
1695726164624,-0.54003906,-0.7151489,0.5848999,-0.46875,1.109375,0.046875
1695726164665,-0.5427246,-0.7192993,0.5844116,-0.359375,1.125,0.28125
1695726164707,-0.54785156,-0.7229614,0.5844116,0.109375,1.03125,0.1875
1695726164764,-0.5437012,-0.71417236,0.5853882,-0.734375,1.1875,-0.234375
1695726164784,-0.54467773,-0.7180786,0.5807495,-0.546875,1.28125,-0.234375
1695726164843,-0.54345703,-0.7151489,0.58636475,-0.40625,1.15625,-0.015625
1695726164863,-0.5498047,-0.72198486,0.5817261,-0.46875,0.890625,-0.15625
1695726164904,-0.5473633,-0.7192993,0.5805054,-0.59375,0.890625,-0.234375
1695726164964,-0.546875,-0.7210083,0.58465576,-0.40625,0.859375,0.25
1695726164983,-0.5546875,-0.71710205,0.5907593,-0.078125,0.84375,0.28125
1695726165065,-0.54541016,-0.71710205,0.5883179,-0.078125,0.640625,0.1875
1695726165068,-0.5517578,-0.71051025,0.5824585,-0.109375,0.5625,0.0625
1695726165104,-0.5444336,-0.7173462,0.588562,0.171875,0.46875,0.234375
1695726165145,-0.55078125,-0.7227173,0.588562,0.109375,0.1875,0.296875
1695726165184,-0.5437012,-0.71881104,0.58343506,-0.03125,0.71875,0.515625
1695726165226,-0.55249023,-0.72076416,0.5817261,0.1875,0.421875,0.40625
1695726165287,-0.546875,-0.7214966,0.5807495,0.296875,0.421875,0.609375
1695726165304,-0.5437012,-0.7210083,0.5795288,0.046875,0.09375,0.296875
1695726165344,-0.548584,-0.7149048,0.5726929,0.046875,0.1875,0.34375
1695726165427,-0.546875,-0.72198486,0.57244873,0.015625,0.171875,0.40625
1695726165430,-0.548584,-0.72369385,0.57440186,0.015625,0.265625,0.53125
1695726165464,-0.5476074,-0.7234497,0.57611084,0.28125,0.46875,0.5
1695726165544,-0.54248047,-0.71954346,0.5751343,0.046875,0.40625,0.4375
1695726165546,-0.546875,-0.7246704,0.5734253,0.203125,0.484375,0.3125
1695726165562,-0.54907227,-0.72857666,0.57611084,0.28125,0.640625,0.328125
1695726165604,-0.54418945,-0.72857666,0.57611084,0.359375,0.546875,0.359375
1695726165664,-0.54467773,-0.7197876,0.5709839,0.046875,0.484375,0.421875
1695726165683,-0.5527344,-0.725647,0.57196045,0.25,0.453125,0.375
1695726165744,-0.5449219,-0.7293091,0.576355,0.078125,0.515625,0.359375
1695726165764,-0.5456543,-0.7276001,0.56658936,0.0,0.375,0.3125
1695726165804,-0.5493164,-0.72735596,0.572937,0.109375,0.578125,0.4375
1695726165844,-0.5498047,-0.7210083,0.572937,0.453125,0.875,0.203125
1695726165947,-0.5510254,-0.7329712,0.5692749,-0.125,0.984375,0.078125
1695726165950,-0.5539551,-0.7329712,0.5717163,0.140625,0.625,0.203125
1695726165963,-0.54296875,-0.7293091,0.57147217,0.078125,0.6875,0.15625
1695726166006,-0.5439453,-0.72540283,0.56536865,-0.328125,0.78125,0.171875
1695726166044,-0.54589844,-0.7305298,0.559021,-0.21875,0.828125,0.203125
1695726166086,-0.5473633,-0.72906494,0.5621948,-0.046875,0.59375,0.015625
1695726166124,-0.54711914,-0.72784424,0.56414795,-0.078125,0.734375,0.28125
1695726166163,-0.5473633,-0.72735596,0.5631714,0.078125,0.953125,0.46875
1695726166225,-0.5456543,-0.72979736,0.55926514,-0.296875,1.265625,0.046875
1695726166243,-0.5546875,-0.72662354,0.5692749,0.0625,0.859375,0.46875
1695726166326,-0.5498047,-0.7300415,0.559021,-0.25,0.3125,0.46875
1695726166364,-0.54663086,-0.7300415,0.55755615,-0.375,1.078125,0.375
1695726166366,-0.54052734,-0.73223877,0.5621948,-0.234375,1.0625,0.3125
1695726166403,-0.5407715,-0.72784424,0.56073,-0.15625,1.03125,0.40625
1695726166444,-0.5385742,-0.7312622,0.55755615,-0.28125,0.859375,0.109375
1695726166507,-0.548584,-0.7288208,0.56121826,-0.078125,0.90625,0.0
1695726166523,-0.5473633,-0.7305298,0.56243896,-0.25,0.828125,0.15625
1695726166563,-0.548584,-0.73272705,0.5656128,-0.25,0.828125,0.09375
1695726166604,-0.54907227,-0.7334595,0.55926514,-0.140625,0.90625,0.125
1695726166643,-0.55029297,-0.73028564,0.5639038,-0.3125,1.046875,0.1875
1695726166704,-0.54345703,-0.73760986,0.56121826,-0.390625,1.03125,0.09375
1695726166724,-0.54589844,-0.72662354,0.55877686,-0.25,0.96875,0.203125
1695726166784,-0.54248047,-0.72662354,0.5597534,-0.25,1.15625,0.046875
1695726166845,-0.546875,-0.7258911,0.559021,-0.53125,1.046875,0.09375
1695726166848,-0.55126953,-0.7346802,0.55877686,-0.546875,1.15625,-0.046875
1695726166884,-0.54833984,-0.7293091,0.56121826,-0.46875,0.765625,-0.046875
1695726166905,-0.5432129,-0.7263794,0.5597534,-0.375,1.15625,-0.171875
1695726166964,-0.54296875,-0.7307739,0.5663452,-0.71875,1.46875,-0.328125
1695726166988,-0.54663086,-0.73443604,0.56951904,-0.15625,1.0,-0.109375
1695726167026,-0.54663086,-0.723938,0.55682373,-0.4375,1.25,-0.03125
1695726167065,-0.5419922,-0.7283325,0.5595093,-0.578125,1.546875,0.015625
1695726167123,-0.5500488,-0.72662354,0.5631714,-0.484375,1.328125,-0.25
1695726167143,-0.54907227,-0.73272705,0.5685425,-0.578125,1.0,-0.015625
1695726167204,-0.54589844,-0.7295532,0.5663452,-0.296875,1.484375,0.171875
1695726167225,-0.54467773,-0.7307739,0.5634155,-0.34375,1.296875,0.015625
1695726167264,-0.5461426,-0.722229,0.5626831,-0.421875,1.390625,-0.28125
1695726167326,-0.5473633,-0.7337036,0.571228,-0.609375,1.359375,-0.125
1695726167353,-0.54711914,-0.73272705,0.56951904,-0.46875,1.0625,0.015625
1695726167383,-0.54663086,-0.7271118,0.56585693,-0.578125,1.5,0.0
1695726167443,-0.54907227,-0.7295532,0.5675659,-0.484375,1.171875,-0.078125
1695726167466,-0.54541016,-0.72613525,0.5643921,-0.5625,1.421875,0.109375
1695726167504,-0.5500488,-0.7341919,0.572937,-0.4375,1.546875,0.03125
1695726167545,-0.546875,-0.7241821,0.5692749,-0.65625,1.203125,-0.140625
1695726167605,-0.5449219,-0.7300415,0.5675659,-0.75,1.1875,-0.28125
1695726167624,-0.54541016,-0.72662354,0.5765991,-0.453125,1.0625,-0.078125
1695726167663,-0.548584,-0.72735596,0.5673218,-0.515625,0.984375,-0.015625
1695726167704,-0.54907227,-0.72613525,0.5692749,-0.59375,1.109375,-0.21875
1695726167744,-0.54248047,-0.72442627,0.57025146,-0.53125,1.28125,0.0
1695726167784,-0.5449219,-0.7234497,0.5722046,-0.5,0.84375,-0.203125
1695726167824,-0.5463867,-0.72540283,0.5783081,-0.46875,1.375,-0.140625
1695726167864,-0.54296875,-0.7227173,0.57489014,-0.703125,1.359375,-0.109375
1695726167906,-0.5498047,-0.7276001,0.57025146,-0.6875,1.59375,-0.140625
1695726167963,-0.5456543,-0.72369385,0.5751343,-0.640625,1.3125,0.0
1695726167986,-0.54467773,-0.72003174,0.57684326,0.015625,1.125,-0.03125
1695726168025,-0.5473633,-0.72198486,0.57073975,-0.828125,1.359375,-0.328125
1695726168064,-0.5488281,-0.72857666,0.574646,-0.875,1.28125,-0.34375
1695726168105,-0.54589844,-0.72125244,0.5739136,-0.515625,1.1875,-0.21875
1695726168145,-0.5517578,-0.71661377,0.57366943,-0.46875,1.140625,-0.328125
1695726168164,-0.54711914,-0.72125244,0.57366943,-0.71875,1.59375,-0.390625
1695726168205,-0.5432129,-0.72906494,0.57977295,-0.640625,1.234375,-0.0625
1695726168244,-0.5498047,-0.7229614,0.5812378,-0.453125,1.140625,-0.015625
1695726168306,-0.546875,-0.71881104,0.5819702,-0.28125,1.28125,-0.03125
1695726168323,-0.54956055,-0.7168579,0.5751343,-0.53125,1.34375,-0.234375
1695726168362,-0.55029297,-0.7190552,0.5790405,-0.640625,1.390625,-0.046875
1695726168404,-0.54711914,-0.7227173,0.5817261,-0.265625,1.0625,0.0625
1695726168464,-0.5493164,-0.71881104,0.57977295,-0.546875,1.1875,0.125
1695726168483,-0.54907227,-0.72491455,0.58148193,-0.28125,1.125,0.15625
1695726168524,-0.5461426,-0.7234497,0.5819702,-0.53125,1.0,0.015625
1695726168585,-0.5449219,-0.72003174,0.5848999,-0.515625,0.921875,0.0
1695726168604,-0.54956055,-0.7149048,0.58636475,-0.71875,1.09375,-0.140625
1695726168644,-0.5473633,-0.7234497,0.5805054,-0.515625,1.09375,0.125
1695726168684,-0.55029297,-0.7190552,0.58148193,-0.546875,1.046875,0.015625
1695726168744,-0.54541016,-0.7173462,0.57855225,-0.5,1.234375,-0.015625
1695726168764,-0.5493164,-0.71417236,0.58587646,-0.609375,1.34375,0.0625
1695726168806,-0.5473633,-0.7168579,0.5805054,-0.46875,1.1875,-0.15625
1695726168844,-0.54711914,-0.7197876,0.5890503,-0.4375,1.3125,-0.03125
1695726168884,-0.5488281,-0.7190552,0.58221436,-0.484375,0.9375,-0.125
1695726168944,-0.5488281,-0.7210083,0.58148193,-0.453125,1.203125,0.140625
1695726168963,-0.5480957,-0.71661377,0.5853882,-0.421875,1.171875,0.03125
1695726169004,-0.5515137,-0.72052,0.58758545,-0.546875,1.0625,0.03125
1695726169044,-0.54907227,-0.72125244,0.58343506,-0.390625,1.03125,0.0625
1695726169085,-0.5539551,-0.7229614,0.5861206,0.0625,0.96875,0.25
1695726169123,-0.5444336,-0.72247314,0.58099365,-0.078125,0.859375,0.015625
1695726169164,-0.5439453,-0.71539307,0.57489014,-0.609375,0.984375,-0.21875
1695726169246,-0.5480957,-0.7197876,0.5873413,-0.546875,1.328125,-0.234375
1695726169249,-0.54833984,-0.722229,0.5883179,-0.296875,1.25,-0.03125
1695726169284,-0.5488281,-0.7124634,0.5787964,-0.453125,1.375,-0.09375
1695726169324,-0.54345703,-0.71661377,0.5819702,-0.671875,1.03125,-0.203125
1695726169363,-0.5480957,-0.7168579,0.58514404,-0.171875,0.8125,0.125
1695726169424,-0.54785156,-0.7149048,0.5934448,0.078125,0.53125,0.265625
1695726169443,-0.5510254,-0.71295166,0.5873413,-0.234375,0.75,0.15625
1695726169482,-0.5498047,-0.71466064,0.57928467,-0.078125,0.671875,0.1875
1695726169547,-0.5583496,-0.71343994,0.5856323,0.40625,0.421875,0.640625
1695726169550,-0.54956055,-0.7173462,0.58514404,0.28125,0.296875,0.375
1695726169587,-0.54589844,-0.71881104,0.5795288,0.015625,0.765625,0.65625
1695726169623,-0.5439453,-0.71881104,0.58221436,0.4375,0.421875,0.421875
1695726169684,-0.546875,-0.72247314,0.5765991,0.140625,0.140625,0.3125
1695726169705,-0.5444336,-0.7173462,0.5807495,0.21875,0.28125,0.453125
1695726169744,-0.54589844,-0.7227173,0.57025146,0.0,0.3125,0.34375
1695726169786,-0.55126953,-0.7229614,0.5787964,0.125,0.15625,0.53125
1695726169824,-0.55029297,-0.7210083,0.5778198,0.03125,0.25,0.484375
1695726169864,-0.55371094,-0.7163696,0.5790405,0.234375,0.375,0.453125
1695726169907,-0.5534668,-0.7241821,0.5709839,0.265625,0.484375,0.453125
1695726169944,-0.54956055,-0.7258911,0.5651245,0.171875,0.671875,0.34375
1695726169987,-0.5517578,-0.722229,0.56781006,0.171875,0.546875,0.34375
1695726170045,-0.5463867,-0.7271118,0.5697632,0.140625,0.5,0.390625
1695726170063,-0.5498047,-0.72784424,0.5680542,0.0625,0.6875,0.34375
1695726170165,-0.54418945,-0.72369385,0.57147217,0.03125,0.453125,0.328125
1695726170168,-0.5563965,-0.723938,0.56658936,0.265625,0.484375,0.578125
1695726170188,-0.5493164,-0.723938,0.56585693,0.40625,0.8125,0.578125
1695726170224,-0.54541016,-0.72784424,0.5609741,-0.421875,0.859375,0.109375
1695726170267,-0.5515137,-0.72979736,0.5687866,0.125,0.765625,0.15625
1695726170303,-0.5517578,-0.73101807,0.5656128,0.046875,0.453125,0.1875
1695726170363,-0.5534668,-0.7263794,0.56658936,-0.140625,0.640625,0.15625
1695726170384,-0.54956055,-0.7246704,0.557312,-0.265625,0.609375,0.140625
1695726170425,-0.5476074,-0.7324829,0.5648804,-0.28125,0.5,0.140625
1695726170485,-0.5527344,-0.72613525,0.56658936,-0.09375,0.640625,0.28125
1695726170506,-0.54467773,-0.72906494,0.56292725,-0.171875,0.703125,0.1875
1695726170545,-0.5498047,-0.7227173,0.5619507,-0.125,0.953125,0.109375
1695726170605,-0.5566406,-0.7280884,0.5643921,0.0,0.640625,0.265625
1695726170624,-0.5527344,-0.7334595,0.56365967,-0.375,0.734375,-0.015625
1695726170664,-0.5461426,-0.7251587,0.5621948,-0.171875,1.03125,-0.09375
1695726170706,-0.5500488,-0.73028564,0.5619507,-0.03125,0.984375,0.234375
1695726170763,-0.5463867,-0.7268677,0.5614624,-0.3125,0.875,0.40625
1695726170785,-0.54785156,-0.72613525,0.5565796,-0.21875,0.96875,0.234375
1695726170803,-0.5510254,-0.7312622,0.56707764,-0.390625,1.046875,0.140625
1695726170844,-0.55493164,-0.72735596,0.5639038,-0.328125,0.796875,0.21875
1695726170904,-0.5480957,-0.7300415,0.56121826,-0.125,0.875,0.015625
1695726170923,-0.5463867,-0.7319946,0.56073,-0.3125,1.078125,0.0625
1695726170964,-0.5473633,-0.7293091,0.56414795,-0.4375,1.03125,0.0625
1695726171004,-0.54467773,-0.72320557,0.5639038,-0.28125,1.0625,0.15625
1695726171044,-0.55078125,-0.7217407,0.56170654,-0.359375,1.03125,-0.046875
1695726171083,-0.55029297,-0.7214966,0.5643921,-0.34375,1.140625,0.140625
1695726171124,-0.5493164,-0.73809814,0.5639038,-0.578125,1.046875,0.078125
1695726171164,-0.54174805,-0.7227173,0.56121826,-0.25,0.953125,0.109375
1695726171264,-0.5493164,-0.7312622,0.5585327,-0.703125,1.5625,-0.234375
1695726171266,-0.5498047,-0.73272705,0.5651245,-0.53125,1.328125,-0.203125
1695726171304,-0.5539551,-0.7312622,0.56903076,-0.421875,1.09375,-0.171875
1695726171344,-0.5510254,-0.7173462,0.5619507,-0.9375,1.390625,-0.25
1695726171364,-0.5480957,-0.7180786,0.56048584,-0.75,1.4375,-0.171875
1695726171403,-0.5505371,-0.7354126,0.5595093,-0.6875,1.25,-0.265625
1695726171443,-0.5444336,-0.7305298,0.56536865,-0.84375,1.140625,-0.125
1695726171484,-0.5539551,-0.72491455,0.56951904,-0.421875,1.53125,0.15625
1695726171524,-0.5476074,-0.723938,0.56903076,-0.578125,1.796875,0.0625
1695726171564,-0.5566406,-0.7190552,0.56829834,-0.703125,1.5625,-0.25
1695726171606,-0.55249023,-0.73394775,0.57025146,-0.5625,1.046875,0.046875
1695726171664,-0.5517578,-0.7210083,0.5717163,-0.46875,1.5625,-0.09375
1695726171683,-0.546875,-0.72052,0.56414795,-0.546875,1.75,-0.0625
1695726171725,-0.5500488,-0.7227173,0.5739136,-0.671875,1.25,-0.046875
1695726171764,-0.5505371,-0.72540283,0.5680542,-0.4375,1.1875,0.140625
1695726171804,-0.5563965,-0.72662354,0.5668335,-0.609375,1.328125,-0.1875
1695726171844,-0.5500488,-0.72442627,0.5709839,-0.640625,1.34375,-0.109375
1695726171884,-0.546875,-0.7214966,0.5734253,-0.796875,1.40625,-0.28125
1695726171924,-0.5480957,-0.7229614,0.5697632,-0.671875,1.3125,0.046875
1695726171964,-0.5515137,-0.71881104,0.57196045,-0.453125,1.484375,-0.125
1695726172003,-0.54956055,-0.725647,0.57147217,-0.65625,1.453125,-0.046875
1695726172064,-0.5498047,-0.7227173,0.57733154,-0.46875,1.296875,-0.03125
1695726172083,-0.5488281,-0.7283325,0.5722046,-0.5,1.359375,-0.203125
1695726172104,-0.54418945,-0.7151489,0.57147217,-0.765625,1.515625,-0.140625
1695726172144,-0.5546875,-0.72052,0.5795288,-0.625,1.453125,0.03125
1695726172185,-0.54467773,-0.7280884,0.58026123,-0.203125,1.125,0.0
1695726172225,-0.54785156,-0.71759033,0.572937,-0.359375,1.296875,-0.140625
1695726172264,-0.54345703,-0.7293091,0.57366943,-1.09375,1.625,-0.484375
1695726172324,-0.5505371,-0.7217407,0.5751343,-0.828125,1.359375,-0.234375
1695726172344,-0.54663086,-0.71588135,0.58465576,-0.53125,1.328125,-0.21875
1695726172384,-0.54907227,-0.7131958,0.5778198,-0.609375,1.5,-0.390625
1695726172443,-0.5473633,-0.71954346,0.5783081,-0.890625,1.484375,-0.296875
1695726172464,-0.54589844,-0.71417236,0.5787964,-0.625,1.140625,0.015625
1695726172505,-0.548584,-0.72003174,0.5787964,-0.203125,1.1875,0.0
1695726172545,-0.546875,-0.7151489,0.58709717,-0.484375,1.375,-0.015625
1695726172585,-0.55029297,-0.7114868,0.5807495,-0.765625,1.203125,-0.0625
1695726172624,-0.5522461,-0.723938,0.5861206,-0.203125,1.171875,-0.0625
1695726172662,-0.55126953,-0.7192993,0.5831909,-0.109375,1.03125,0.109375
1695726172703,-0.5476074,-0.7168579,0.58099365,-0.390625,1.1875,0.015625
1695726172745,-0.548584,-0.71588135,0.5795288,-0.390625,1.171875,0.15625
1695726172785,-0.5473633,-0.7234497,0.58514404,-0.34375,0.921875,0.015625
1695726172844,-0.5444336,-0.7168579,0.57928467,-0.1875,1.0625,-0.046875
1695726172865,-0.54956055,-0.7168579,0.5778198,-0.421875,0.890625,0.0625
1695726172905,-0.54785156,-0.71661377,0.5824585,-0.4375,1.171875,0.21875
1695726172945,-0.548584,-0.71417236,0.58221436,-0.4375,1.140625,0.03125
1695726172990,-0.54907227,-0.7119751,0.58148193,-0.34375,1.03125,-0.03125
1695726173024,-0.54785156,-0.71710205,0.5853882,-0.34375,1.203125,0.078125
1695726173086,-0.55322266,-0.7163696,0.5819702,-0.15625,1.109375,0.0
1695726173107,-0.54711914,-0.71466064,0.5829468,-0.21875,0.984375,0.0625
1695726173145,-0.5500488,-0.7151489,0.5824585,-0.28125,1.0625,0.1875
1695726173185,-0.55078125,-0.7107544,0.5778198,-0.21875,1.078125,0.0625
1695726173224,-0.5463867,-0.71417236,0.576355,-0.46875,1.078125,0.015625
1695726173286,-0.54663086,-0.72003174,0.5770874,-0.515625,1.09375,-0.046875
1695726173304,-0.5488281,-0.72052,0.58587646,-0.28125,0.875,0.125
1695726173344,-0.5498047,-0.7139282,0.58636475,0.296875,1.234375,0.203125
1695726173364,-0.5456543,-0.7095337,0.586853,-0.5625,1.34375,-0.0625
1695726173404,-0.5527344,-0.7214966,0.5807495,-0.59375,1.078125,-0.1875
1695726173465,-0.54907227,-0.7139282,0.58392334,-0.25,1.34375,0.109375
1695726173483,-0.54907227,-0.710022,0.5873413,-0.359375,1.3125,-0.03125
1695726173524,-0.55200195,-0.71539307,0.58148193,-0.375,1.171875,-0.078125
1695726173565,-0.54833984,-0.71954346,0.5856323,-0.390625,0.921875,0.0
1695726173644,-0.54345703,-0.7190552,0.59051514,-0.171875,0.609375,0.1875
1695726173647,-0.5498047,-0.7192993,0.590271,-0.015625,0.875,0.328125
1695726173706,-0.5529785,-0.706604,0.58392334,-0.03125,0.640625,0.125
1695726173723,-0.55200195,-0.7070923,0.57977295,0.03125,0.65625,0.3125
1695726173762,-0.548584,-0.71221924,0.5805054,0.3125,0.328125,0.53125
1695726173823,-0.54711914,-0.710022,0.58270264,0.015625,0.78125,0.375
1695726173863,-0.54418945,-0.71343994,0.5783081,0.15625,0.546875,0.40625
1695726173886,-0.5539551,-0.7180786,0.5790405,0.203125,0.28125,0.453125
1695726173924,-0.5515137,-0.7173462,0.5790405,0.203125,0.234375,0.5625
1695726173963,-0.5510254,-0.71661377,0.58392334,-0.046875,0.5,0.46875
1695726174004,-0.55078125,-0.7173462,0.5783081,0.0,0.4375,0.515625
1695726174043,-0.5500488,-0.72491455,0.57440186,0.125,0.265625,0.609375
1695726174084,-0.5498047,-0.71588135,0.576355,0.234375,0.203125,0.390625
1695726174125,-0.55200195,-0.71881104,0.5717163,0.109375,0.203125,0.390625
1695726174188,-0.55322266,-0.7214966,0.57611084,0.171875,0.53125,0.359375
1695726174204,-0.54785156,-0.72125244,0.5722046,0.359375,0.53125,0.46875
1695726174243,-0.54907227,-0.7178345,0.5661011,0.234375,0.46875,0.46875
1695726174285,-0.54467773,-0.7312622,0.57196045,0.265625,0.4375,0.421875
1695726174324,-0.5493164,-0.72369385,0.5619507,-0.015625,0.65625,0.125
1695726174385,-0.5527344,-0.7168579,0.5697632,-0.03125,0.578125,0.375
1695726174403,-0.5566406,-0.725647,0.5717163,0.25,0.265625,0.234375
1695726174444,-0.5493164,-0.7251587,0.5673218,0.328125,0.484375,0.359375
1695726174484,-0.5449219,-0.72442627,0.56463623,-0.4375,0.6875,0.234375
1695726174524,-0.55444336,-0.72735596,0.5709839,-0.265625,0.71875,0.234375
1695726174564,-0.5546875,-0.7276001,0.57025146,0.171875,0.421875,0.234375
1695726174625,-0.5480957,-0.722229,0.56073,-0.1875,0.6875,0.25
1695726174644,-0.5517578,-0.72491455,0.5639038,-0.1875,0.796875,0.09375
1695726174684,-0.5439453,-0.7241821,0.56243896,-0.40625,0.53125,0.21875
1695726174703,-0.5505371,-0.7251587,0.56463623,-0.296875,0.6875,0.09375
1695726174787,-0.5563965,-0.7280884,0.5614624,0.203125,0.90625,0.59375
1695726174790,-0.54956055,-0.72662354,0.56781006,-0.03125,1.21875,0.1875
1695726174824,-0.5529785,-0.7241821,0.5668335,-0.046875,0.859375,0.25
1695726174867,-0.55322266,-0.723938,0.5697632,-0.09375,0.578125,0.328125
1695726174904,-0.5546875,-0.7229614,0.5621948,-0.421875,1.25,0.21875
1695726174944,-0.5529785,-0.7317505,0.56414795,-0.140625,1.03125,0.265625
1695726174988,-0.54785156,-0.72735596,0.56781006,-0.265625,0.859375,0.09375
1695726175025,-0.5488281,-0.723938,0.5639038,-0.515625,0.765625,0.3125
1695726175065,-0.546875,-0.7241821,0.5668335,-0.265625,0.890625,0.1875
1695726175113,-0.5500488,-0.72735596,0.5621948,-0.328125,1.21875,0.265625
1695726175143,-0.5480957,-0.7305298,0.56073,-0.390625,0.984375,0.203125
1695726175185,-0.54785156,-0.7268677,0.571228,-0.375,1.0,0.125
1695726175224,-0.55444336,-0.73150635,0.5648804,-0.375,1.125,0.203125
1695726175264,-0.55029297,-0.7293091,0.5634155,-0.234375,0.984375,0.03125
1695726175323,-0.5515137,-0.7271118,0.5663452,-0.359375,1.0,-0.09375
1695726175344,-0.54833984,-0.72906494,0.5685425,-0.3125,1.046875,0.15625
1695726175383,-0.5444336,-0.73101807,0.56170654,-0.53125,1.046875,0.15625
1695726175426,-0.55126953,-0.7280884,0.5668335,-0.3125,1.15625,0.046875
1695726175466,-0.5449219,-0.723938,0.5585327,-0.5,1.21875,-0.03125
1695726175524,-0.548584,-0.72906494,0.5680542,-0.640625,1.328125,-0.125
1695726175544,-0.55737305,-0.73150635,0.56781006,-0.265625,1.015625,-0.125
1695726175584,-0.5488281,-0.71881104,0.56414795,-0.765625,1.28125,-0.28125
1695726175624,-0.55126953,-0.723938,0.5582886,-0.484375,1.421875,-0.15625
1695726175664,-0.55493164,-0.73223877,0.56414795,-0.65625,1.203125,-0.234375
1695726175705,-0.5480957,-0.7305298,0.5675659,-0.5625,0.96875,-0.109375
1695726175763,-0.5551758,-0.73321533,0.5726929,-0.21875,1.609375,0.1875
1695726175784,-0.5473633,-0.7202759,0.5692749,-0.390625,1.53125,0.0625
1695726175824,-0.5510254,-0.7185669,0.55999756,-0.734375,1.546875,-0.265625
1695726175884,-0.55566406,-0.73272705,0.5675659,-0.328125,1.078125,-0.078125
1695726175904,-0.55493164,-0.7190552,0.5717163,-0.703125,1.40625,-0.015625
1695726175945,-0.54663086,-0.72320557,0.5700073,-0.6875,1.765625,-0.015625
1695726176026,-0.5488281,-0.73028564,0.56903076,-0.671875,1.40625,0.109375
1695726176030,-0.54589844,-0.725647,0.5673218,-0.703125,1.34375,0.109375
1695726176043,-0.54174805,-0.7263794,0.5700073,-0.671875,1.46875,-0.125
1695726176084,-0.55029297,-0.7214966,0.5709839,-0.640625,1.421875,-0.15625
1695726176124,-0.548584,-0.72613525,0.5726929,-0.546875,1.359375,0.0
1695726176164,-0.54833984,-0.72247314,0.5778198,-0.359375,1.4375,-0.171875
1695726176204,-0.54345703,-0.72003174,0.57806396,-0.703125,1.53125,-0.171875
1695726176245,-0.5551758,-0.7149048,0.57196045,-0.765625,1.5625,0.03125
1695726176283,-0.54663086,-0.72198486,0.57855225,-0.390625,1.46875,-0.015625
1695726176325,-0.54907227,-0.72198486,0.5817261,-0.609375,1.640625,-0.140625
1695726176365,-0.55126953,-0.7229614,0.574646,-0.828125,1.625,-0.03125
1695726176424,-0.546875,-0.72320557,0.57806396,-0.625,1.25,-0.234375
1695726176444,-0.5473633,-0.7197876,0.5836792,-0.296875,1.109375,0.0625
1695726176484,-0.54125977,-0.71832275,0.576355,-0.40625,1.125,0.0
1695726176545,-0.54956055,-0.7241821,0.574646,-1.078125,1.5625,-0.515625
1695726176584,-0.5539551,-0.7210083,0.57855225,-0.578125,1.421875,-0.328125
1695726176604,-0.54833984,-0.72076416,0.57977295,-0.5625,1.5625,-0.140625
1695726176644,-0.5480957,-0.7192993,0.5824585,-0.59375,1.40625,-0.203125
1695726176683,-0.5456543,-0.7173462,0.57562256,-0.796875,1.3125,-0.140625
1695726176786,-0.5461426,-0.72003174,0.5817261,-0.578125,0.890625,-0.171875
1695726176790,-0.5515137,-0.7197876,0.5829468,-0.359375,1.1875,0.15625
1695726176804,-0.546875,-0.71417236,0.58514404,-0.375,1.28125,0.015625
1695726176844,-0.5461426,-0.710022,0.58465576,-0.40625,1.296875,-0.125
1695726176884,-0.54785156,-0.71417236,0.5873413,-0.25,1.09375,0.125
1695726176924,-0.55126953,-0.71173096,0.5848999,-0.109375,1.21875,-0.046875
1695726176965,-0.54907227,-0.7161255,0.57855225,-0.296875,1.28125,-0.046875
1695726177004,-0.5439453,-0.7119751,0.5812378,-0.1875,1.109375,0.09375
1695726177044,-0.548584,-0.7151489,0.58465576,0.109375,1.109375,0.453125
1695726177084,-0.54467773,-0.71539307,0.58270264,0.171875,1.078125,0.25
1695726177124,-0.54956055,-0.71832275,0.5873413,-0.03125,1.125,0.078125
1695726177164,-0.5488281,-0.7124634,0.58709717,-0.359375,1.046875,0.171875
1695726177204,-0.5473633,-0.72076416,0.5836792,-0.328125,0.875,0.296875
1695726177244,-0.5456543,-0.7136841,0.58343506,-0.453125,0.984375,-0.03125
1695726177284,-0.5427246,-0.71099854,0.58636475,-0.328125,0.984375,-0.171875
1695726177304,-0.5463867,-0.7151489,0.5805054,-0.328125,0.953125,0.046875
1695726177349,-0.55126953,-0.7149048,0.5844116,-0.328125,1.0625,0.203125
1695726177383,-0.5449219,-0.7192993,0.5836792,-0.21875,1.203125,-0.046875
1695726177444,-0.54785156,-0.7151489,0.57489014,-0.53125,1.109375,-0.171875
1695726177465,-0.54541016,-0.7161255,0.5831909,-0.484375,1.296875,-0.046875
1695726177523,-0.5488281,-0.7197876,0.58636475,-0.53125,0.9375,0.125
1695726177604,-0.5498047,-0.7185669,0.586853,0.140625,1.03125,0.109375
1695726177607,-0.5493164,-0.7131958,0.58465576,-0.578125,1.359375,-0.140625
1695726177624,-0.54833984,-0.71759033,0.5848999,-0.609375,0.96875,-0.15625
1695726177724,-0.5407715,-0.71343994,0.58758545,-0.375,1.265625,-0.015625
1695726177727,-0.5449219,-0.7151489,0.5848999,-0.34375,1.03125,-0.078125
1695726177744,-0.5505371,-0.7139282,0.5853882,-0.5,1.359375,-0.015625
1695726177785,-0.54833984,-0.7168579,0.59173584,-0.265625,0.71875,0.21875
1695726177826,-0.5437012,-0.7161255,0.58465576,-0.171875,0.78125,0.328125
1695726177867,-0.55029297,-0.71588135,0.59051514,0.03125,0.875,0.25
1695726177904,-0.5473633,-0.7112427,0.5866089,-0.015625,0.734375,0.125
1695726177986,-0.546875,-0.7144165,0.58929443,-0.21875,0.34375,0.25
1695726177990,-0.548584,-0.72320557,0.5861206,0.21875,0.078125,0.21875
1695726178045,-0.5522461,-0.7178345,0.58270264,0.171875,0.71875,0.296875
1695726178066,-0.5476074,-0.71759033,0.5817261,0.046875,0.46875,0.46875
1695726178124,-0.5461426,-0.71417236,0.58099365,0.0,0.09375,0.4375
1695726178145,-0.5522461,-0.72613525,0.5751343,0.0,0.125,0.328125
1695726178227,-0.54956055,-0.71759033,0.5787964,-0.09375,0.171875,0.21875
1695726178230,-0.55078125,-0.71466064,0.5790405,-0.15625,-0.03125,0.359375
1695726178284,-0.54833984,-0.7156372,0.5753784,0.0625,0.203125,0.515625
1695726178324,-0.54541016,-0.7144165,0.57147217,0.0625,0.234375,0.34375
1695726178344,-0.55126953,-0.71954346,0.5697632,0.015625,0.359375,0.484375
1695726178386,-0.5493164,-0.7180786,0.57440186,0.0625,0.625,0.40625
1695726178424,-0.5534668,-0.71759033,0.5726929,0.296875,0.734375,0.484375
1695726178465,-0.5456543,-0.72320557,0.5717163,0.15625,0.9375,0.46875
1695726178547,-0.5527344,-0.7241821,0.57025146,-0.046875,0.4375,0.40625
1695726178550,-0.5498047,-0.7271118,0.572937,0.15625,0.671875,0.3125
1695726178586,-0.5488281,-0.7229614,0.57489014,0.265625,0.734375,0.46875
1695726178604,-0.5449219,-0.7295532,0.5648804,-0.234375,0.703125,0.15625
1695726178643,-0.55566406,-0.73101807,0.5751343,-0.203125,0.84375,0.203125
1695726178704,-0.55371094,-0.72735596,0.57244873,0.421875,0.5625,0.171875
1695726178746,-0.5500488,-0.72442627,0.5700073,-0.046875,0.84375,0.21875
1695726178764,-0.5476074,-0.7214966,0.5639038,-0.234375,1.078125,0.296875
1695726178824,-0.5527344,-0.72662354,0.56903076,-0.015625,0.640625,0.484375
1695726178844,-0.54907227,-0.72540283,0.56951904,0.0,0.46875,0.4375
1695726178884,-0.54663086,-0.7295532,0.56243896,0.140625,0.6875,0.625
1695726178943,-0.546875,-0.7251587,0.56781006,0.140625,0.859375,0.421875
1695726178964,-0.548584,-0.7268677,0.56463623,-0.078125,0.625,0.4375
1695726179005,-0.5480957,-0.7319946,0.56658936,-0.21875,0.453125,0.375
1695726179063,-0.54174805,-0.722229,0.5619507,-0.046875,1.28125,0.21875
1695726179103,-0.546875,-0.7324829,0.5619507,0.0625,1.1875,0.15625
1695726179145,-0.54418945,-0.72198486,0.56414795,-0.078125,0.828125,0.234375
1695726179164,-0.54833984,-0.7246704,0.56658936,-0.125,0.71875,0.1875
1695726179204,-0.5529785,-0.7246704,0.56243896,-0.1875,0.90625,0.203125
1695726179247,-0.5432129,-0.7263794,0.56536865,-0.484375,0.734375,0.046875
1695726179284,-0.55249023,-0.7258911,0.56707764,-0.515625,0.609375,0.1875
1695726179324,-0.5510254,-0.7312622,0.56292725,-0.3125,0.796875,0.40625
1695726179365,-0.548584,-0.7227173,0.5609741,-0.125,1.03125,0.109375
1695726179403,-0.5473633,-0.7263794,0.5648804,-0.421875,1.21875,0.203125
1695726179445,-0.5510254,-0.72857666,0.555603,-0.5625,1.109375,0.203125
1695726179484,-0.55078125,-0.72735596,0.5614624,-0.609375,1.0,0.109375
1695726179524,-0.5498047,-0.72784424,0.5656128,-0.359375,1.078125,0.0625
1695726179584,-0.5439453,-0.72247314,0.56292725,-0.109375,1.1875,0.09375
1695726179624,-0.5463867,-0.7324829,0.5631714,-0.875,1.421875,0.015625
1695726179665,-0.54907227,-0.73638916,0.5741577,-0.21875,0.828125,0.0
1695726179683,-0.5515137,-0.7319946,0.5626831,-0.484375,1.0625,-0.140625
1695726179724,-0.5493164,-0.72613525,0.5631714,-0.484375,1.28125,-0.109375
1695726179763,-0.546875,-0.72662354,0.5602417,-0.640625,1.328125,0.0
1695726179804,-0.55126953,-0.72491455,0.56292725,-0.609375,0.796875,-0.25
1695726179845,-0.54663086,-0.7246704,0.5739136,-0.328125,1.203125,0.09375
1695726179904,-0.55493164,-0.7293091,0.5685425,-0.296875,1.171875,0.0625
1695726179907,-0.54907227,-0.72198486,0.56707764,-0.390625,1.328125,-0.40625
1695726179965,-0.54956055,-0.7210083,0.57196045,-0.453125,1.1875,-0.015625
1695726180027,-0.55200195,-0.7276001,0.5687866,-0.640625,1.1875,-0.09375
1695726180030,-0.5539551,-0.722229,0.5685425,-0.65625,1.6875,-0.125
1695726180063,-0.5461426,-0.7317505,0.56781006,-0.390625,1.296875,0.078125
1695726180123,-0.5534668,-0.71881104,0.5680542,-0.578125,1.234375,0.09375
1695726180164,-0.54589844,-0.7276001,0.5656128,-0.609375,1.171875,-0.140625
1695726180184,-0.5551758,-0.7271118,0.5648804,-0.671875,1.109375,-0.140625
1695726180224,-0.5439453,-0.7227173,0.5673218,-0.84375,1.265625,-0.3125
1695726180264,-0.5588379,-0.7227173,0.57244873,-0.8125,1.203125,-0.125
1695726180304,-0.54833984,-0.7268677,0.57318115,-0.84375,1.375,-0.125
1695726180347,-0.5439453,-0.7168579,0.57489014,-0.6875,1.53125,-0.234375
1695726180385,-0.5529785,-0.72198486,0.57806396,-0.640625,1.578125,-0.125
1695726180430,-0.55029297,-0.72320557,0.5753784,-0.734375,1.375,-0.0625
1695726180464,-0.5534668,-0.72613525,0.57440186,-0.5625,1.203125,-0.140625
1695726180503,-0.54711914,-0.7151489,0.5807495,-0.265625,1.1875,0.0625
1695726180544,-0.54663086,-0.72198486,0.56951904,-0.328125,1.4375,-0.1875
1695726180604,-0.5493164,-0.71710205,0.5775757,-0.890625,1.296875,-0.375
1695726180645,-0.55810547,-0.72198486,0.57977295,-0.53125,1.265625,-0.25
1695726180664,-0.54833984,-0.7241821,0.5709839,-0.5625,1.59375,-0.265625
1695726180723,-0.548584,-0.71539307,0.5753784,-0.625,1.5,-0.3125
1695726180746,-0.5498047,-0.71832275,0.57611084,-1.0,1.5,-0.296875
1695726180785,-0.5539551,-0.7202759,0.58026123,-0.484375,1.046875,-0.15625
1695726180824,-0.54907227,-0.72052,0.58026123,-0.5625,1.515625,-0.046875
1695726180885,-0.5461426,-0.71710205,0.5848999,-0.734375,1.609375,-0.421875
1695726180905,-0.54956055,-0.71099854,0.5758667,-0.578125,1.53125,-0.109375
1695726180945,-0.5476074,-0.71710205,0.5787964,-0.40625,1.21875,-0.078125
1695726181003,-0.54785156,-0.72003174,0.5783081,-0.546875,1.4375,-0.21875
1695726181024,-0.5517578,-0.7144165,0.5819702,-0.640625,1.375,-0.09375
1695726181065,-0.5476074,-0.72125244,0.5824585,-0.40625,1.359375,0.15625
1695726181104,-0.5510254,-0.72076416,0.5770874,-0.46875,1.109375,0.078125
1695726181147,-0.55126953,-0.72125244,0.5836792,-0.484375,1.203125,0.0625
1695726181184,-0.54663086,-0.71588135,0.5844116,-0.40625,1.15625,-0.046875
1695726181203,-0.5527344,-0.7114868,0.58343506,-0.390625,1.171875,0.015625
1695726181245,-0.5473633,-0.7161255,0.59002686,-0.1875,1.109375,0.109375
1695726181284,-0.5505371,-0.71099854,0.5829468,-0.390625,0.96875,0.234375
1695726181326,-0.55078125,-0.71466064,0.58514404,-0.25,1.265625,0.03125
1695726181405,-0.54663086,-0.7163696,0.5836792,-0.171875,1.25,0.015625
1695726181425,-0.5480957,-0.7144165,0.5829468,-0.265625,1.46875,0.0625
1695726181465,-0.5473633,-0.7178345,0.5841675,-0.4375,1.359375,0.171875
1695726181484,-0.5539551,-0.7168579,0.58758545,-0.328125,0.921875,0.25
1695726181545,-0.54125977,-0.71417236,0.590271,0.0,0.90625,-0.015625
1695726181585,-0.5476074,-0.71466064,0.5861206,-0.390625,0.875,0.015625
1695726181604,-0.5449219,-0.7190552,0.5853882,-0.875,1.140625,-0.125
1695726181665,-0.548584,-0.71221924,0.5848999,-0.5,1.140625,-0.15625
1695726181684,-0.5476074,-0.7151489,0.5805054,-0.09375,0.953125,0.0625
1695726181744,-0.5407715,-0.706604,0.58709717,-0.203125,1.15625,-0.03125
1695726181784,-0.5534668,-0.7180786,0.5853882,-0.625,1.28125,-0.15625
1695726181803,-0.5473633,-0.72052,0.5897827,-0.203125,0.75,0.171875
1695726181864,-0.54907227,-0.7163696,0.5848999,0.015625,0.828125,0.375
1695726181884,-0.5515137,-0.7070923,0.58709717,-0.203125,0.828125,0.078125
1695726181924,-0.5500488,-0.70977783,0.58026123,0.0,0.609375,0.078125
1695726181984,-0.55249023,-0.72198486,0.5829468,0.265625,0.21875,0.40625
1695726182046,-0.5488281,-0.7127075,0.5856323,0.25,0.375,0.46875
1695726182049,-0.5510254,-0.71417236,0.5817261,0.28125,0.5625,0.4375
1695726182084,-0.5541992,-0.7180786,0.5775757,0.296875,0.25,0.546875
1695726182123,-0.54833984,-0.7151489,0.57928467,0.15625,0.125,0.4375
1695726182164,-0.55078125,-0.7210083,0.58099365,0.109375,0.296875,0.421875
1695726182204,-0.54785156,-0.7131958,0.58148193,0.078125,0.359375,0.390625
1695726182245,-0.5461426,-0.7246704,0.576355,0.09375,0.390625,0.515625
1695726182284,-0.5571289,-0.7217407,0.5717163,0.28125,0.3125,0.59375
1695726182324,-0.5534668,-0.7161255,0.5770874,0.203125,0.21875,0.546875
1695726182364,-0.55249023,-0.722229,0.574646,0.0,0.4375,0.5625
1695726182404,-0.5515137,-0.72320557,0.56829834,0.21875,0.484375,0.453125
1695726182445,-0.5541992,-0.7229614,0.5787964,0.296875,0.453125,0.453125
1695726182484,-0.54956055,-0.72369385,0.5697632,-0.125,0.453125,0.390625
1695726182504,-0.55078125,-0.7229614,0.56829834,-0.1875,0.578125,0.5
1695726182544,-0.545166,-0.72906494,0.5692749,0.09375,0.5625,0.4375
1695726182584,-0.55200195,-0.72003174,0.5704956,0.53125,0.671875,0.328125
1695726182666,-0.55322266,-0.7258911,0.57147217,-0.265625,0.78125,0.0625
1695726182669,-0.5563965,-0.73101807,0.5717163,0.09375,0.5625,0.296875
1695726182704,-0.5473633,-0.7229614,0.57025146,0.21875,0.5625,0.171875
1695726182764,-0.5505371,-0.72442627,0.5643921,-0.171875,0.90625,0.0
1695726182784,-0.54785156,-0.72125244,0.56170654,-0.03125,0.78125,0.078125
1695726182826,-0.55078125,-0.72735596,0.5656128,-0.265625,0.046875,0.21875
1695726182864,-0.5546875,-0.72613525,0.5700073,-0.0625,0.546875,0.375
1695726182947,-0.548584,-0.722229,0.5614624,0.203125,0.875,0.453125
1695726182950,-0.5498047,-0.71832275,0.5668335,-0.1875,0.734375,0.125
1695726182984,-0.5505371,-0.72784424,0.5639038,-0.09375,0.578125,0.421875
1695726183028,-0.55371094,-0.73028564,0.5675659,-0.3125,0.75,0.234375
1695726183064,-0.5534668,-0.7263794,0.5680542,-0.0625,1.265625,0.109375
1695726183104,-0.5559082,-0.7288208,0.5614624,0.0625,0.96875,0.3125
1695726183146,-0.55249023,-0.7241821,0.5643921,-0.015625,0.96875,0.21875
1695726183185,-0.5505371,-0.73028564,0.56536865,-0.140625,1.078125,0.125
1695726183224,-0.54833984,-0.7283325,0.5675659,-0.171875,1.0625,0.125
1695726183284,-0.5515137,-0.7293091,0.5597534,-0.265625,0.828125,0.125
1695726183324,-0.55444336,-0.7280884,0.5643921,-0.40625,0.921875,0.234375
1695726183344,-0.5517578,-0.72540283,0.5675659,-0.140625,1.0625,0.15625
1695726183384,-0.55371094,-0.7263794,0.56707764,-0.1875,1.015625,0.1875
1695726183445,-0.5500488,-0.7263794,0.5626831,-0.21875,0.875,0.15625
1695726183464,-0.5539551,-0.7271118,0.5651245,-0.296875,0.96875,0.265625
1695726183504,-0.55249023,-0.73272705,0.5621948,-0.359375,1.0625,0.1875
1695726183544,-0.54785156,-0.72540283,0.56463623,-0.03125,0.90625,0.078125
1695726183584,-0.5515137,-0.72979736,0.55340576,-0.421875,1.125,0.1875
1695726183624,-0.5480957,-0.7288208,0.5619507,-0.546875,1.1875,-0.171875
1695726183663,-0.55493164,-0.7366333,0.572937,-0.234375,0.953125,0.046875
1695726183703,-0.54589844,-0.723938,0.56048584,-0.5625,1.125,-0.171875
1695726183785,-0.5515137,-0.72247314,0.55804443,-0.6875,1.21875,-0.09375
1695726183787,-0.55078125,-0.73101807,0.56414795,-0.5,1.1875,-0.09375
1695726183825,-0.546875,-0.7293091,0.5697632,-0.546875,0.953125,-0.25
1695726183843,-0.5493164,-0.7251587,0.5675659,-0.421875,1.265625,0.21875
1695726183884,-0.55371094,-0.72540283,0.5675659,-0.5,1.515625,0.0
1695726183924,-0.54467773,-0.7229614,0.5656128,-0.5,1.421875,-0.25
1695726183964,-0.5493164,-0.7312622,0.56365967,-0.53125,1.078125,-0.03125
1695726184004,-0.5473633,-0.7202759,0.5639038,-0.578125,1.203125,-0.21875
1695726184044,-0.54907227,-0.72662354,0.5680542,-0.421875,1.609375,-0.140625
1695726184104,-0.54467773,-0.72491455,0.57318115,-0.515625,1.21875,0.03125
1695726184124,-0.55200195,-0.7214966,0.5668335,-0.59375,1.203125,0.03125
1695726184164,-0.5463867,-0.7317505,0.5709839,-0.59375,1.28125,-0.078125
1695726184205,-0.5505371,-0.72052,0.5685425,-0.625,1.375,-0.25
1695726184245,-0.5539551,-0.72052,0.57025146,-0.578125,1.3125,-0.046875
1695726184283,-0.5456543,-0.7241821,0.56463623,-0.75,1.359375,-0.09375
1695726184325,-0.55078125,-0.72247314,0.57025146,-0.546875,1.203125,-0.15625
1695726184384,-0.5527344,-0.7234497,0.5692749,-0.5,1.296875,0.015625
1695726184403,-0.5498047,-0.71954346,0.57562256,-0.46875,1.40625,-0.078125
1695726184442,-0.5493164,-0.72491455,0.5765991,-0.703125,1.40625,-0.234375
1695726184483,-0.5498047,-0.723938,0.57440186,-0.640625,1.5625,-0.046875
1695726184525,-0.5510254,-0.7246704,0.5717163,-0.734375,1.046875,0.015625
1695726184564,-0.55322266,-0.72076416,0.5795288,0.109375,1.109375,-0.03125
1695726184603,-0.5480957,-0.7202759,0.5739136,-0.90625,1.375,-0.296875
1695726184644,-0.5493164,-0.7173462,0.57147217,-0.8125,1.421875,-0.359375
1695726184684,-0.5517578,-0.725647,0.5765991,-0.625,1.578125,-0.359375
1695726184728,-0.55737305,-0.71295166,0.57733154,-0.484375,1.59375,-0.21875
1695726184766,-0.54956055,-0.72003174,0.58148193,-0.75,1.765625,-0.375
1695726184804,-0.55859375,-0.71954346,0.5812378,-0.828125,1.515625,-0.390625
1695726184844,-0.54956055,-0.7144165,0.59173584,-0.5,1.265625,0.171875
1695726184884,-0.545166,-0.7151489,0.5841675,-0.203125,1.34375,0.328125
1695726184924,-0.55126953,-0.71173096,0.5836792,-0.5,1.234375,-0.046875
1695726184964,-0.5480957,-0.7161255,0.5790405,-0.578125,1.375,-0.125
1695726185011,-0.5510254,-0.71661377,0.58343506,-0.296875,1.1875,0.09375
1695726185044,-0.54833984,-0.7180786,0.58221436,-0.421875,1.703125,0.140625
1695726185107,-0.54345703,-0.7163696,0.5770874,-0.421875,1.359375,-0.015625
1695726185124,-0.55078125,-0.72076416,0.574646,-0.34375,1.390625,0.109375
1695726185145,-0.5510254,-0.71954346,0.58392334,-0.4375,1.359375,0.0
1695726185204,-0.548584,-0.72052,0.5829468,-0.34375,1.34375,-0.03125
1695726185225,-0.5498047,-0.72003174,0.58465576,-0.390625,1.1875,0.125
1695726185263,-0.54467773,-0.7168579,0.58221436,-0.328125,1.015625,0.15625
1695726185303,-0.5463867,-0.71954346,0.58270264,-0.421875,1.0625,-0.03125
1695726185365,-0.5456543,-0.7149048,0.5866089,-0.453125,1.15625,0.0625
1695726185427,-0.54956055,-0.71832275,0.59002686,-0.28125,1.34375,0.1875
1695726185430,-0.5432129,-0.7163696,0.58270264,-0.03125,0.984375,0.078125
1695726185464,-0.5534668,-0.7173462,0.5800171,-0.375,1.25,0.078125
1695726185504,-0.5500488,-0.7095337,0.5829468,-0.390625,1.359375,-0.015625
1695726185563,-0.5488281,-0.7163696,0.5836792,-0.296875,0.984375,-0.046875
1695726185583,-0.54833984,-0.71759033,0.58807373,-0.171875,0.96875,0.046875
1695726185625,-0.5517578,-0.7139282,0.58587646,-0.03125,1.171875,0.09375
1695726185665,-0.5505371,-0.7151489,0.5873413,-0.734375,1.140625,-0.09375
1695726185726,-0.546875,-0.7114868,0.5829468,-0.375,0.96875,-0.234375
1695726185742,-0.5498047,-0.7139282,0.5866089,0.0,1.3125,-0.125
1695726185802,-0.55981445,-0.70758057,0.58514404,-0.046875,1.53125,-0.125
1695726185823,-0.5522461,-0.72003174,0.58587646,-0.296875,1.171875,-0.03125
1695726185862,-0.55029297,-0.710022,0.5829468,-0.15625,0.625,0.265625
1695726185902,-0.5527344,-0.7085571,0.586853,0.09375,0.53125,0.390625
1695726185986,-0.5498047,-0.71417236,0.5812378,0.046875,0.578125,0.265625
1695726185988,-0.5515137,-0.71417236,0.576355,-0.015625,0.4375,0.296875
1695726186026,-0.5554199,-0.7202759,0.58392334,0.234375,0.1875,0.46875
1695726186127,-0.5493164,-0.7156372,0.5841675,0.3125,0.234375,0.453125
1695726186130,-0.5498047,-0.7144165,0.5765991,0.15625,0.640625,0.40625
1695726186184,-0.55078125,-0.72442627,0.57733154,0.25,0.5625,0.265625
1695726186187,-0.5505371,-0.7161255,0.57366943,0.34375,0.1875,0.40625
1695726186224,-0.545166,-0.72125244,0.5734253,0.1875,0.234375,0.4375
1695726186263,-0.546875,-0.7234497,0.57806396,0.234375,0.546875,0.390625
1695726186303,-0.5476074,-0.7217407,0.57562256,0.03125,0.4375,0.484375
1695726186384,-0.5456543,-0.72491455,0.57855225,0.171875,0.34375,0.515625
1695726186445,-0.54907227,-0.72491455,0.574646,0.265625,0.421875,0.546875
1695726186448,-0.5500488,-0.72857666,0.5775757,0.21875,0.46875,0.53125
1695726186450,-0.54541016,-0.7173462,0.5631714,0.265625,0.390625,0.515625
1695726186484,-0.5510254,-0.7263794,0.57196045,0.28125,0.59375,0.421875
1695726186524,-0.5449219,-0.72320557,0.5717163,0.0625,0.796875,0.5
1695726186564,-0.5437012,-0.7246704,0.5668335,0.03125,0.78125,0.46875
1695726186604,-0.5500488,-0.7295532,0.5700073,0.140625,0.703125,0.625
1695726186644,-0.5539551,-0.7324829,0.57244873,0.484375,0.75,0.421875
1695726186684,-0.5439453,-0.7288208,0.5643921,-0.359375,0.84375,0.140625
1695726186724,-0.5515137,-0.7300415,0.5726929,-0.078125,0.640625,0.171875
1695726186764,-0.5439453,-0.7258911,0.5668335,0.15625,0.28125,0.109375
1695726186824,-0.54174805,-0.72003174,0.56121826,-0.3125,0.546875,0.234375
1695726186864,-0.5493164,-0.72369385,0.5631714,-0.28125,0.6875,0.125
1695726186883,-0.54956055,-0.7337036,0.5651245,-0.25,0.28125,0.125
1695726186964,-0.55078125,-0.7280884,0.56903076,0.0,0.578125,0.328125
1695726186967,-0.5463867,-0.7276001,0.56414795,0.078125,0.796875,0.28125
1695726187003,-0.5529785,-0.71466064,0.5668335,-0.25,0.765625,0.21875
1695726187064,-0.5500488,-0.7295532,0.56951904,-0.1875,0.640625,0.21875
1695726187124,-0.5517578,-0.7263794,0.5697632,-0.203125,0.71875,0.203125
1695726187127,-0.5498047,-0.7258911,0.55926514,0.078125,1.234375,0.203125
1695726187164,-0.548584,-0.7283325,0.56365967,-0.140625,0.609375,0.171875
1695726187204,-0.5488281,-0.72906494,0.56365967,-0.25,0.8125,0.203125
1695726187244,-0.5505371,-0.73321533,0.5656128,-0.15625,0.8125,0.15625
1695726187284,-0.5517578,-0.7324829,0.5639038,-0.09375,0.921875,0.140625
1695726187344,-0.5505371,-0.7234497,0.5685425,-0.390625,0.6875,0.140625
1695726187365,-0.54956055,-0.7280884,0.56414795,-0.28125,0.71875,0.1875
1695726187405,-0.5517578,-0.7263794,0.56781006,-0.09375,0.703125,0.109375
1695726187444,-0.5480957,-0.72320557,0.5626831,-0.28125,0.890625,0.109375
1695726187505,-0.5473633,-0.7276001,0.5609741,-0.3125,0.875,0.1875
1695726187544,-0.54833984,-0.73565674,0.56243896,-0.375,0.8125,-0.046875
1695726187563,-0.55029297,-0.7268677,0.5656128,-0.5,1.03125,0.109375
1695726187603,-0.5493164,-0.73394775,0.56048584,-0.21875,0.921875,0.125
1695726187665,-0.55029297,-0.7234497,0.5578003,-0.15625,1.125,0.234375
1695726187685,-0.54711914,-0.7280884,0.5585327,-0.453125,1.203125,0.0
1695726187726,-0.5517578,-0.7307739,0.5643921,-0.21875,0.84375,-0.0625
1695726187786,-0.5510254,-0.73028564,0.56463623,-0.484375,0.9375,-0.09375
1695726187791,-0.5510254,-0.7251587,0.56292725,-0.4375,1.25,-0.015625
1695726187824,-0.54956055,-0.73028564,0.5621948,-0.46875,1.046875,-0.109375
1695726187864,-0.54833984,-0.7324829,0.5680542,-0.65625,0.828125,-0.15625
1695726187924,-0.55249023,-0.725647,0.5648804,-0.109375,1.328125,0.09375
1695726187964,-0.5515137,-0.7324829,0.56658936,-0.28125,1.28125,0.046875
1695726188004,-0.5541992,-0.72320557,0.56829834,-0.59375,1.109375,-0.125
1695726188024,-0.54833984,-0.72491455,0.5643921,-0.4375,0.90625,0.171875
1695726188065,-0.5522461,-0.72784424,0.5621948,-0.5625,0.9375,-0.0625
1695726188105,-0.5449219,-0.7271118,0.56073,-0.328125,1.296875,-0.078125
1695726188145,-0.5473633,-0.72784424,0.5651245,-0.328125,1.0625,0.171875
1695726188184,-0.5500488,-0.73101807,0.56243896,-0.5625,1.0625,0.109375
1695726188225,-0.5529785,-0.72613525,0.5631714,-0.484375,1.265625,-0.125
1695726188264,-0.5505371,-0.722229,0.56414795,-0.5625,1.09375,-0.125
1695726188325,-0.55029297,-0.72979736,0.55926514,-0.828125,1.140625,-0.03125
1695726188344,-0.55029297,-0.7263794,0.5651245,-0.734375,1.1875,-0.015625
1695726188404,-0.5449219,-0.73028564,0.5700073,-0.578125,1.203125,-0.171875
1695726188425,-0.54785156,-0.7276001,0.5697632,-0.59375,1.265625,-0.109375
1695726188464,-0.54711914,-0.722229,0.56829834,-0.5,1.390625,-0.09375
1695726188506,-0.55322266,-0.7180786,0.56658936,-0.78125,1.1875,-0.203125
1695726188544,-0.5473633,-0.72247314,0.5673218,-0.578125,1.359375,-0.3125
1695726188625,-0.54174805,-0.7268677,0.56951904,-0.375,1.1875,-0.203125
1695726188627,-0.55126953,-0.72320557,0.5643921,-0.15625,1.390625,0.0625
1695726188664,-0.54833984,-0.72442627,0.5753784,-0.921875,1.59375,-0.5
1695726188704,-0.5563965,-0.7246704,0.5739136,-0.71875,1.328125,-0.25
1695726188764,-0.5539551,-0.7190552,0.5717163,-0.59375,1.171875,-0.265625
1695726188784,-0.55029297,-0.7197876,0.5685425,-0.515625,1.359375,-0.390625
1695726188844,-0.5559082,-0.7241821,0.57147217,-0.6875,1.28125,-0.4375
1695726188869,-0.5432129,-0.73028564,0.5824585,-0.75,0.9375,-0.28125
1695726188904,-0.5522461,-0.7214966,0.5770874,-0.234375,1.515625,0.125
1695726188964,-0.54711914,-0.72125244,0.57684326,-0.390625,1.390625,0.078125
1695726188985,-0.5480957,-0.7139282,0.57318115,-0.453125,1.4375,-0.203125
1695726189045,-0.55493164,-0.71759033,0.5751343,-0.46875,1.265625,0.015625
1695726189048,-0.55029297,-0.722229,0.5753784,-0.515625,1.078125,-0.046875
1695726189084,-0.55029297,-0.7190552,0.5783081,-0.421875,1.71875,-0.03125
1695726189125,-0.5476074,-0.72052,0.5765991,-0.375,1.125,-0.125
1695726189164,-0.55078125,-0.71588135,0.5734253,-0.4375,1.328125,0.0
1695726189204,-0.55029297,-0.71417236,0.5734253,-0.34375,1.28125,-0.109375
1695726189264,-0.5522461,-0.7210083,0.5787964,-0.5625,1.265625,-0.046875
1695726189284,-0.54663086,-0.72003174,0.5812378,-0.609375,1.15625,-0.203125
1695726189324,-0.5515137,-0.7178345,0.5824585,-0.46875,1.03125,0.109375
1695726189364,-0.54418945,-0.7124634,0.58148193,-0.5,1.21875,-0.203125
1695726189404,-0.55029297,-0.71710205,0.5770874,-0.578125,1.125,0.0625
1695726189443,-0.55737305,-0.71881104,0.5795288,-0.3125,1.125,0.0625
1695726189485,-0.54663086,-0.71417236,0.5783081,-0.5,1.09375,0.015625
1695726189546,-0.54907227,-0.71295166,0.57855225,-0.46875,1.21875,-0.03125
1695726189586,-0.5522461,-0.71466064,0.5775757,-0.359375,1.171875,0.09375
1695726189605,-0.5498047,-0.71539307,0.5778198,-0.546875,1.21875,-0.015625
1695726189644,-0.55322266,-0.7185669,0.58148193,-0.375,0.921875,0.03125
1695726189684,-0.5541992,-0.725647,0.5861206,-0.15625,1.0,-0.078125
1695726189813,-0.54956055,-0.7156372,0.57855225,-0.3125,1.15625,-0.015625
1695726189818,-0.55493164,-0.71710205,0.5805054,-1.0,1.265625,-0.375
1695726189822,-0.5480957,-0.7161255,0.5817261,-0.546875,1.421875,-0.4375
1695726189865,-0.5539551,-0.70977783,0.5844116,-0.25,1.203125,0.0
1695726189883,-0.5480957,-0.71343994,0.57855225,-0.484375,1.375,-0.171875
1695726189944,-0.55249023,-0.7144165,0.5790405,-0.671875,1.265625,-0.25
1695726189985,-0.5498047,-0.71661377,0.58929443,-0.421875,1.078125,0.0625
1695726190003,-0.55200195,-0.7151489,0.58392334,-0.171875,1.109375,0.125
1695726190043,-0.55322266,-0.7041626,0.58343506,-0.5,1.0625,-0.0625
1695726190084,-0.55029297,-0.71417236,0.58148193,-0.390625,1.0,-0.171875
1695726190144,-0.55126953,-0.723938,0.58880615,-0.140625,1.109375,0.15625
1695726190163,-0.55566406,-0.71099854,0.5824585,-0.234375,1.25,0.328125
1695726190225,-0.55249023,-0.71051025,0.5853882,-0.25,1.078125,0.203125
1695726190243,-0.55615234,-0.7173462,0.58026123,-0.15625,0.625,0.234375
1695726190324,-0.54711914,-0.7217407,0.5895386,-0.09375,1.03125,0.171875
1695726190345,-0.5534668,-0.7192993,0.58929443,-0.140625,1.0,0.25
1695726190347,-0.5578613,-0.7114868,0.58343506,-0.171875,0.734375,0.109375
1695726190404,-0.5480957,-0.7078247,0.58465576,-0.296875,0.734375,0.28125
1695726190425,-0.5529785,-0.71661377,0.5824585,0.0625,0.828125,0.109375
1695726190464,-0.5551758,-0.71466064,0.58636475,-0.125,0.734375,0.1875
1695726190508,-0.5390625,-0.7192993,0.5807495,0.15625,0.765625,0.5
1695726190563,-0.55444336,-0.7127075,0.58270264,0.125,0.796875,0.390625
1695726190606,-0.5505371,-0.7139282,0.5787964,-0.046875,0.734375,0.375
1695726190623,-0.5559082,-0.722229,0.5824585,0.09375,0.75,0.375
1695726190687,-0.5510254,-0.72003174,0.5829468,0.03125,0.453125,0.296875
1695726190704,-0.54907227,-0.7190552,0.57611084,0.03125,0.5,0.40625
1695726190743,-0.5505371,-0.7114868,0.5741577,-0.0625,0.65625,0.28125
1695726190783,-0.5563965,-0.7173462,0.5790405,0.03125,0.8125,0.421875
1695726190824,-0.54711914,-0.7178345,0.57489014,0.0625,0.375,0.53125
1695726190884,-0.54711914,-0.72247314,0.5783081,0.75,0.609375,0.40625
1695726190906,-0.5510254,-0.72052,0.5697632,-0.25,0.765625,0.125
1695726190943,-0.5566406,-0.7190552,0.57806396,0.0625,0.53125,0.21875
1695726190983,-0.5510254,-0.72076416,0.57562256,0.125,0.546875,0.28125
1695726191023,-0.5480957,-0.71881104,0.56707764,-0.203125,0.578125,0.34375
1695726191063,-0.5588379,-0.7263794,0.5631714,-0.234375,0.609375,0.265625
1695726191145,-0.5476074,-0.72442627,0.57147217,-0.21875,0.25,0.421875
1695726191146,-0.55371094,-0.71710205,0.57489014,0.359375,0.515625,0.53125
1695726191185,-0.55078125,-0.72125244,0.5687866,0.203125,0.84375,0.453125
1695726191223,-0.54956055,-0.71661377,0.571228,0.296875,0.875,0.375
1695726191263,-0.55322266,-0.7263794,0.5680542,0.265625,0.53125,0.4375
1695726191323,-0.548584,-0.72540283,0.5661011,0.03125,0.578125,0.453125
1695726191343,-0.5498047,-0.7197876,0.5687866,0.328125,1.046875,0.40625
1695726191383,-0.5473633,-0.7246704,0.5602417,0.15625,0.625,0.5625
1695726191422,-0.55249023,-0.7241821,0.56292725,-0.234375,0.46875,0.359375
1695726191464,-0.5541992,-0.72784424,0.5626831,0.109375,0.4375,0.3125
1695726191502,-0.5522461,-0.72613525,0.56829834,0.046875,0.515625,0.25
1695726191543,-0.54663086,-0.7214966,0.5634155,-0.28125,0.53125,0.296875
1695726191583,-0.5515137,-0.7276001,0.5597534,-0.390625,0.71875,-0.125
1695726191665,-0.55029297,-0.72369385,0.56829834,-0.078125,0.640625,0.390625
1695726191666,-0.5554199,-0.7234497,0.5656128,-0.03125,0.96875,0.328125
1695726191681,-0.5517578,-0.7276001,0.5639038,-0.09375,0.984375,0.265625
1695726191723,-0.5566406,-0.7263794,0.5602417,-0.140625,0.90625,0.296875
1695726191763,-0.5493164,-0.7283325,0.5661011,-0.390625,0.828125,0.203125
1695726191802,-0.55249023,-0.72491455,0.56121826,-0.34375,1.078125,0.46875
1695726191843,-0.5510254,-0.72369385,0.56243896,-0.140625,0.921875,0.140625
1695726191883,-0.54663086,-0.7151489,0.5619507,0.078125,0.90625,0.203125
1695726191923,-0.5473633,-0.7317505,0.5626831,-0.640625,1.234375,-0.125
1695726191964,-0.5527344,-0.72979736,0.56707764,-0.03125,0.875,-0.03125
1695726192002,-0.5493164,-0.7241821,0.5656128,-0.578125,1.0625,-0.21875
1695726192043,-0.5476074,-0.71710205,0.55633545,-0.5,1.328125,0.078125
1695726192084,-0.54711914,-0.7241821,0.56243896,-0.4375,1.09375,-0.0625
1695726192123,-0.5461426,-0.7317505,0.5685425,-0.71875,0.796875,-0.203125
1695726192225,-0.5488281,-0.7268677,0.5692749,-0.078125,1.15625,0.171875
1695726192226,-0.54711914,-0.7210083,0.56781006,-0.375,1.40625,-0.09375
1695726192265,-0.55615234,-0.7151489,0.5687866,-0.28125,1.21875,-0.09375
1695726192283,-0.5595703,-0.7234497,0.56414795,-0.234375,0.9375,0.015625
1695726192323,-0.5493164,-0.7276001,0.5656128,-0.46875,1.03125,-0.0625
1695726192425,-0.55322266,-0.7268677,0.5643921,-0.25,1.1875,-0.03125
1695726192426,-0.5515137,-0.72979736,0.5685425,-0.421875,0.953125,0.109375
1695726192443,-0.55371094,-0.7271118,0.56536865,-0.625,1.0,0.125
1695726192484,-0.55810547,-0.7280884,0.56707764,-0.625,1.34375,-0.125
1695726192523,-0.5551758,-0.7246704,0.5639038,-0.40625,1.28125,0.109375
1695726192562,-0.5583496,-0.73101807,0.57440186,-0.4375,1.328125,0.0625
1695726192624,-0.5498047,-0.72247314,0.5656128,-0.6875,1.359375,-0.03125
1695726192643,-0.54956055,-0.71759033,0.57318115,-0.671875,1.4375,0.015625
1695726192683,-0.55810547,-0.7246704,0.5726929,-0.4375,1.21875,0.125
1695726192723,-0.55493164,-0.72369385,0.56903076,-0.46875,1.25,-0.109375
1695726192763,-0.55615234,-0.7163696,0.5700073,-0.71875,1.328125,-0.03125
1695726192802,-0.55249023,-0.7241821,0.571228,-0.765625,1.4375,-0.0625
1695726192842,-0.55371094,-0.72491455,0.5805054,-0.46875,1.234375,-0.078125
1695726192883,-0.5534668,-0.71832275,0.5722046,-0.265625,1.390625,-0.09375
1695726192942,-0.54907227,-0.71881104,0.56707764,-1.046875,1.453125,-0.296875
1695726192984,-0.55688477,-0.7229614,0.57611084,-0.53125,0.9375,-0.4375
1695726192985,-0.55322266,-0.71710205,0.5717163,-0.796875,1.4375,-0.34375
1695726193022,-0.5534668,-0.7178345,0.5770874,-0.640625,1.484375,-0.28125
1695726193065,-0.55615234,-0.7161255,0.57244873,-0.734375,1.515625,-0.296875
1695726193102,-0.5541992,-0.7229614,0.5783081,-0.84375,1.25,-0.1875
1695726193143,-0.5488281,-0.72003174,0.57855225,-0.328125,1.5625,0.046875
1695726193184,-0.5554199,-0.723938,0.5819702,-0.390625,1.546875,-0.03125
1695726193244,-0.54956055,-0.7151489,0.5790405,-0.546875,1.375,-0.140625
1695726193263,-0.5529785,-0.7149048,0.5800171,-0.640625,1.59375,-0.328125
1695726193322,-0.5505371,-0.71881104,0.5778198,-0.5,1.265625,-0.015625
1695726193403,-0.5515137,-0.7144165,0.57684326,-0.421875,1.484375,-0.21875
1695726193405,-0.5541992,-0.7168579,0.5836792,-0.671875,1.359375,-0.1875
1695726193423,-0.55493164,-0.7131958,0.5770874,-0.484375,1.265625,-0.125
1695726193484,-0.5551758,-0.71710205,0.57928467,-0.296875,1.1875,-0.09375
1695726193502,-0.55444336,-0.7107544,0.576355,-0.484375,1.15625,-0.09375
1695726193563,-0.5539551,-0.71881104,0.5800171,-0.53125,1.234375,-0.1875
1695726193625,-0.5566406,-0.71343994,0.58026123,-0.328125,0.953125,0.03125
1695726193626,-0.5510254,-0.71466064,0.5805054,-0.34375,1.140625,0.046875
1695726193663,-0.55493164,-0.70977783,0.5819702,-0.375,1.140625,-0.046875
1695726193702,-0.55126953,-0.7163696,0.58709717,-0.296875,1.0625,-0.15625
1695726193742,-0.55444336,-0.7144165,0.58148193,-0.515625,1.1875,0.15625
1695726193783,-0.5527344,-0.7139282,0.57855225,-0.4375,1.3125,-0.015625
1695726193823,-0.5559082,-0.71051025,0.5853882,-0.21875,1.203125,0.0625
1695726193865,-0.5571289,-0.7168579,0.58392334,-0.015625,1.125,0.21875
1695726193902,-0.55078125,-0.71173096,0.57855225,-0.46875,0.875,-0.140625
1695726193943,-0.54589844,-0.71588135,0.57684326,-0.859375,1.09375,-0.34375
1695726193983,-0.55493164,-0.7127075,0.57928467,-0.5,1.21875,-0.296875
1695726194022,-0.55126953,-0.7114868,0.5836792,-0.359375,1.0625,-0.140625
1695726194064,-0.5515137,-0.7114868,0.58392334,-0.59375,1.015625,-0.140625
1695726194103,-0.5461426,-0.7085571,0.586853,-0.71875,1.015625,-0.21875
1695726194149,-0.5488281,-0.7124634,0.586853,-0.59375,0.8125,-0.078125
1695726194203,-0.55126953,-0.7085571,0.5890503,-0.21875,0.90625,0.078125
1695726194223,-0.5539551,-0.7078247,0.5883179,-0.34375,1.078125,0.0
1695726194265,-0.55810547,-0.71173096,0.5836792,-0.34375,1.140625,-0.046875
1695726194306,-0.56030273,-0.7185669,0.5848999,-0.109375,0.78125,0.140625
1695726194343,-0.5566406,-0.71051025,0.5829468,-0.171875,1.015625,0.078125
1695726194363,-0.5554199,-0.7114868,0.5817261,-0.359375,1.21875,0.078125
1695726194403,-0.5578613,-0.71295166,0.57928467,-0.328125,0.984375,0.171875
1695726194442,-0.55566406,-0.7156372,0.5861206,-0.3125,0.96875,0.078125
1695726194484,-0.5515137,-0.71343994,0.58514404,-0.28125,1.078125,0.0625
1695726194564,-0.5541992,-0.7124634,0.58636475,-0.328125,0.875,-0.046875
1695726194566,-0.5551758,-0.7161255,0.58221436,-0.421875,0.921875,0.125
1695726194624,-0.5541992,-0.710022,0.5829468,-0.21875,0.859375,0.09375
1695726194643,-0.5522461,-0.71173096,0.58514404,-0.296875,1.0625,0.140625
1695726194704,-0.55200195,-0.7085571,0.58392334,-0.421875,1.140625,0.046875
1695726194723,-0.5566406,-0.7090454,0.58099365,-0.25,0.953125,0.0
1695726194763,-0.5527344,-0.7156372,0.58270264,-0.125,0.9375,-0.046875
1695726194802,-0.54907227,-0.71343994,0.5795288,-0.25,1.125,-0.015625
1695726194842,-0.5527344,-0.7090454,0.5831909,-0.234375,0.671875,0.234375
1695726194882,-0.55249023,-0.7161255,0.5819702,-0.078125,1.0,0.125
1695726194922,-0.5515137,-0.7102661,0.58709717,0.21875,0.828125,0.1875
1695726194963,-0.5546875,-0.71588135,0.58148193,-0.546875,0.859375,-0.09375
1695726195004,-0.5612793,-0.70928955,0.5795288,-0.015625,0.546875,0.109375
1695726195044,-0.5554199,-0.71173096,0.5861206,0.03125,0.703125,0.234375
1695726195085,-0.5554199,-0.7112427,0.58343506,-0.1875,0.78125,0.25
1695726195123,-0.5534668,-0.71417236,0.5841675,-0.1875,0.734375,0.28125
1695726195165,-0.55810547,-0.7139282,0.58099365,-0.109375,0.046875,0.40625
1695726195204,-0.55249023,-0.7210083,0.5787964,0.109375,0.40625,0.71875
1695726195244,-0.54956055,-0.7168579,0.5787964,-0.0625,0.515625,0.390625
1695726195306,-0.5578613,-0.7119751,0.5741577,0.0,0.546875,0.234375
1695726195345,-0.56103516,-0.710022,0.5751343,0.234375,0.265625,0.328125
1695726195364,-0.55444336,-0.7178345,0.5758667,0.265625,0.375,0.40625
1695726195403,-0.55249023,-0.7161255,0.57244873,0.125,0.703125,0.421875
1695726195445,-0.5554199,-0.72076416,0.57147217,0.0625,0.453125,0.390625
1695726195485,-0.55200195,-0.7190552,0.56903076,-0.046875,0.4375,0.5625
1695726195588,-0.5534668,-0.72442627,0.57733154,0.1875,0.328125,0.34375
1695726195590,-0.5578613,-0.71710205,0.5739136,0.109375,0.609375,0.34375
1695726195592,-0.55688477,-0.7136841,0.56658936,-0.109375,0.421875,0.453125
1695726195643,-0.55444336,-0.7190552,0.5709839,-0.125,0.359375,0.515625
1695726195669,-0.5522461,-0.71710205,0.56951904,0.015625,0.40625,0.46875
1695726195723,-0.5583496,-0.71759033,0.56903076,-0.03125,0.640625,0.359375
1695726195787,-0.55810547,-0.722229,0.5673218,0.015625,0.671875,0.171875
1695726195796,-0.56225586,-0.71588135,0.5631714,0.203125,0.78125,0.34375
1695726195825,-0.5563965,-0.7227173,0.57611084,-0.078125,0.765625,0.46875
1695726195883,-0.56030273,-0.7251587,0.5700073,0.265625,0.75,0.421875
1695726195905,-0.5463867,-0.71954346,0.5602417,-0.265625,0.890625,0.15625
1695726196006,-0.55126953,-0.72076416,0.5704956,-0.140625,0.84375,0.046875
1695726196009,-0.55444336,-0.72247314,0.56414795,-0.03125,0.53125,0.109375
1695726196026,-0.5500488,-0.72369385,0.5680542,-0.53125,0.609375,-0.015625
1695726196065,-0.55126953,-0.7202759,0.5619507,-0.484375,0.953125,0.078125
1695726196105,-0.55078125,-0.7268677,0.56536865,-0.46875,0.734375,0.03125
1695726196144,-0.5517578,-0.72052,0.56781006,-0.375,0.9375,0.015625
1695726196186,-0.55859375,-0.72247314,0.571228,-0.234375,1.375,0.171875
1695726196224,-0.5559082,-0.71832275,0.5673218,-0.390625,1.359375,0.015625
1695726196266,-0.5588379,-0.72320557,0.57073975,-0.421875,1.1875,-0.03125
1695726196323,-0.548584,-0.7234497,0.5692749,-0.421875,1.109375,0.09375
1695726196344,-0.55688477,-0.7210083,0.5685425,-0.359375,1.671875,-0.1875
1695726196385,-0.55615234,-0.71881104,0.571228,-0.546875,1.390625,0.03125
1695726196485,-0.55615234,-0.723938,0.5700073,-0.6875,1.28125,-0.15625
1695726196488,-0.5541992,-0.7283325,0.5639038,-0.640625,1.421875,0.0625
1695726196524,-0.5563965,-0.7214966,0.5675659,-0.546875,1.578125,-0.109375
1695726196544,-0.56030273,-0.7144165,0.5663452,-0.59375,1.484375,-0.1875
1695726196584,-0.5500488,-0.7136841,0.5700073,-0.671875,1.25,-0.015625
1695726196625,-0.56274414,-0.72247314,0.574646,-0.46875,1.5,-0.265625
1695726196665,-0.5527344,-0.7210083,0.56951904,-0.5625,1.65625,-0.203125
1695726196706,-0.55615234,-0.7161255,0.5741577,-0.875,1.75,-0.234375
1695726196746,-0.55249023,-0.72125244,0.57366943,-0.65625,1.703125,0.0
1695726196786,-0.5566406,-0.7192993,0.57684326,-0.4375,1.46875,0.015625
1695726196843,-0.5551758,-0.7124634,0.58148193,-0.140625,1.703125,-0.046875
1695726196887,-0.55078125,-0.7178345,0.57196045,-0.75,1.515625,-0.484375
1695726196889,-0.5529785,-0.7185669,0.5778198,-0.78125,1.375,-0.515625
1695726196944,-0.5541992,-0.7144165,0.5734253,-0.65625,1.515625,-0.40625
1695726196984,-0.55126953,-0.7061157,0.57928467,-0.484375,1.375,-0.234375
1695726197003,-0.5546875,-0.7210083,0.57806396,-0.859375,1.46875,-0.234375
1695726197043,-0.5578613,-0.7168579,0.5817261,-0.765625,1.421875,-0.1875
1695726197106,-0.5578613,-0.7161255,0.58514404,-0.390625,1.171875,0.0
1695726197124,-0.560791,-0.71539307,0.58270264,-0.4375,1.375,0.078125
1695726197163,-0.5571289,-0.71051025,0.5856323,-0.5625,1.359375,-0.3125
1695726197214,-0.55737305,-0.71539307,0.5751343,-0.328125,1.4375,-0.140625
1695726197263,-0.5571289,-0.7070923,0.5848999,-0.234375,1.0,0.109375
1695726197284,-0.55493164,-0.71343994,0.5831909,-0.5,1.5,0.0
1695726197324,-0.5551758,-0.7151489,0.5841675,-0.359375,1.234375,0.09375
1695726197364,-0.5559082,-0.7127075,0.5836792,-0.328125,1.171875,0.109375
1695726197404,-0.55810547,-0.7127075,0.5805054,-0.390625,1.140625,0.09375
1695726197444,-0.5576172,-0.71710205,0.58270264,-0.171875,1.21875,0.109375
1695726197485,-0.5551758,-0.7131958,0.58392334,-0.53125,1.015625,0.171875
1695726197524,-0.5566406,-0.71173096,0.5831909,-0.296875,1.0625,0.203125
1695726197565,-0.5593262,-0.71099854,0.58636475,-0.390625,1.09375,0.15625
1695726197606,-0.55078125,-0.7073364,0.58270264,-0.234375,1.125,0.03125
1695726197644,-0.5559082,-0.7144165,0.5790405,-0.359375,1.046875,0.1875
1695726197684,-0.55688477,-0.7156372,0.58392334,-0.234375,1.015625,0.25
1695726197744,-0.5551758,-0.71343994,0.58758545,-0.375,1.109375,0.0
1695726197762,-0.5566406,-0.7139282,0.58148193,-0.453125,1.28125,0.046875
1695726197804,-0.5510254,-0.71588135,0.57977295,-0.546875,1.234375,0.09375
1695726197844,-0.5617676,-0.7161255,0.5866089,-0.375,0.859375,0.359375
1695726197887,-0.5546875,-0.7144165,0.5883179,0.390625,0.875,0.140625
1695726197923,-0.5534668,-0.7114868,0.5783081,-0.625,1.109375,-0.125
1695726197964,-0.5563965,-0.7163696,0.5775757,-0.671875,1.15625,-0.234375
1695726198023,-0.5517578,-0.708313,0.5848999,-0.21875,1.265625,-0.109375
1695726198064,-0.5517578,-0.70562744,0.58758545,-0.375,1.25,0.046875
1695726198124,-0.5539551,-0.7136841,0.58221436,-0.53125,1.1875,-0.125
1695726198127,-0.5546875,-0.71539307,0.5856323,-0.484375,0.875,0.171875
1695726198185,-0.5559082,-0.71173096,0.5841675,-0.21875,0.96875,0.078125
1695726198188,-0.5593262,-0.7144165,0.5895386,-0.25,1.0625,0.0625
1695726198224,-0.55029297,-0.70196533,0.58758545,-0.390625,1.03125,-0.046875
1695726198265,-0.560791,-0.7046509,0.588562,-0.203125,0.828125,0.109375
1695726198324,-0.55981445,-0.7061157,0.59124756,-0.03125,0.703125,0.25
1695726198344,-0.55566406,-0.71051025,0.58392334,-0.109375,0.84375,0.34375
1695726198404,-0.5498047,-0.70880127,0.5848999,0.296875,0.65625,0.3125
1695726198424,-0.55322266,-0.7090454,0.58709717,0.03125,0.375,0.21875
1695726198504,-0.5498047,-0.7149048,0.58392334,0.109375,0.359375,0.453125
1695726198509,-0.55200195,-0.71661377,0.5817261,0.109375,0.515625,0.34375
1695726198563,-0.55322266,-0.7139282,0.57855225,0.1875,0.25,0.359375
1695726198585,-0.5593262,-0.7139282,0.5805054,0.109375,0.046875,0.328125
1695726198625,-0.5522461,-0.7085571,0.5741577,0.015625,0.3125,0.4375
1695726198665,-0.560791,-0.71466064,0.57855225,0.046875,0.34375,0.3125
1695726198706,-0.55249023,-0.71759033,0.5778198,0.078125,0.5,0.40625
1695726198744,-0.5551758,-0.7149048,0.5758667,0.09375,0.1875,0.484375
1695726198783,-0.5517578,-0.7168579,0.5770874,0.25,0.40625,0.40625
1695726198823,-0.5527344,-0.7124634,0.57366943,0.078125,0.609375,0.5
1695726198882,-0.55615234,-0.7163696,0.57318115,0.203125,0.59375,0.390625
1695726198905,-0.56103516,-0.71954346,0.57196045,0.171875,0.390625,0.484375
1695726198944,-0.5588379,-0.71759033,0.57318115,0.3125,0.609375,0.359375
1695726199004,-0.55566406,-0.7234497,0.56707764,-0.453125,0.71875,0.1875
1695726199024,-0.5566406,-0.72125244,0.5739136,0.125,0.34375,0.234375
1695726199086,-0.55859375,-0.7258911,0.57855225,0.203125,0.515625,0.234375
1695726199106,-0.5571289,-0.7185669,0.5717163,-0.3125,0.453125,0.203125
1695726199163,-0.5588379,-0.7190552,0.5663452,-0.078125,0.765625,0.140625
1695726199204,-0.5510254,-0.72320557,0.5700073,-0.15625,0.421875,0.28125
1695726199244,-0.5593262,-0.71661377,0.5717163,0.21875,0.484375,0.546875
1695726199264,-0.55371094,-0.7234497,0.56414795,-0.03125,0.828125,0.53125
1695726199367,-0.56225586,-0.7173462,0.56365967,-0.109375,0.75,0.28125
1695726199371,-0.5644531,-0.72003174,0.57147217,0.171875,0.46875,0.40625
1695726199384,-0.5541992,-0.7271118,0.56414795,-0.0625,0.71875,0.375
1695726199426,-0.5546875,-0.7185669,0.5663452,0.078125,1.28125,0.296875
1695726199505,-0.55444336,-0.72198486,0.5692749,-0.171875,0.90625,0.140625
1695726199508,-0.5576172,-0.7227173,0.5631714,-0.34375,0.890625,0.265625
1695726199524,-0.5488281,-0.7229614,0.5631714,-0.359375,0.9375,0.109375
1695726199564,-0.5620117,-0.7163696,0.5704956,-0.125,0.953125,0.0625
1695726199605,-0.55737305,-0.7168579,0.5639038,-0.296875,0.890625,0.109375
1695726199644,-0.5563965,-0.7168579,0.5656128,-0.4375,1.109375,0.140625
1695726199684,-0.55566406,-0.7227173,0.56365967,-0.484375,1.0,0.015625
1695726199724,-0.5593262,-0.7217407,0.56707764,-0.375,1.171875,0.03125
1695726199804,-0.5546875,-0.7197876,0.5692749,-0.359375,1.09375,0.0
1695726199806,-0.5600586,-0.7139282,0.57025146,-0.5,1.109375,-0.03125
1695726199885,-0.5583496,-0.72540283,0.5648804,-0.609375,1.296875,0.03125
1695726199887,-0.55737305,-0.72369385,0.56951904,-0.3125,1.15625,0.1875
1695726199923,-0.55322266,-0.7217407,0.55877686,-0.46875,1.46875,-0.171875
1695726199964,-0.55566406,-0.7214966,0.56829834,-0.703125,1.5,-0.0625
1695726200004,-0.5551758,-0.7202759,0.5717163,-0.453125,1.171875,-0.03125
1695726200045,-0.5493164,-0.7217407,0.56781006,-0.78125,1.375,-0.296875
1695726200083,-0.55737305,-0.7127075,0.56414795,-0.640625,1.421875,-0.234375
1695726200122,-0.55737305,-0.7214966,0.571228,-0.421875,1.25,-0.234375
1695726200204,-0.5588379,-0.7178345,0.5726929,-0.671875,1.03125,-0.171875
1695726200206,-0.5593262,-0.72003174,0.5717163,-0.34375,1.296875,0.171875
1695726200243,-0.5593262,-0.70684814,0.574646,-0.453125,1.421875,0.09375
1695726200283,-0.55615234,-0.71417236,0.57318115,-0.484375,1.390625,-0.140625
1695726200323,-0.5576172,-0.71661377,0.5734253,-0.296875,0.859375,-0.015625
1695726200364,-0.55322266,-0.7180786,0.57073975,-0.265625,1.484375,0.0
1695726200404,-0.55810547,-0.7210083,0.571228,-0.5,1.28125,0.046875
1695726200444,-0.55737305,-0.7202759,0.5675659,-0.390625,1.0,0.140625
1695726200486,-0.5527344,-0.7149048,0.5739136,-0.4375,1.046875,-0.109375
1695726200524,-0.5527344,-0.71832275,0.56951904,-0.359375,1.296875,-0.015625
1695726200564,-0.5578613,-0.71710205,0.574646,-0.5,1.109375,-0.1875
1695726200604,-0.5559082,-0.72198486,0.57611084,-0.65625,1.171875,-0.078125
1695726200643,-0.55737305,-0.71343994,0.5751343,-0.46875,1.375,0.015625
1695726200683,-0.5588379,-0.7156372,0.5807495,-0.4375,1.3125,0.078125
1695726200744,-0.56152344,-0.7190552,0.5753784,-0.359375,1.171875,0.0
1695726200763,-0.55615234,-0.7114868,0.574646,-0.625,1.046875,0.15625
1695726200784,-0.5588379,-0.7185669,0.57562256,-0.625,1.4375,-0.046875
1695726200824,-0.5554199,-0.7163696,0.5787964,-0.203125,1.1875,0.109375
1695726200865,-0.55615234,-0.7139282,0.57733154,-0.03125,1.359375,0.125
1695726200905,-0.55249023,-0.7202759,0.56707764,-0.78125,1.328125,-0.25
1695726200944,-0.5559082,-0.7192993,0.5812378,-0.453125,0.703125,-0.171875
1695726200984,-0.5554199,-0.7127075,0.5753784,-0.40625,1.125,-0.09375
1695726201026,-0.5546875,-0.71099854,0.57318115,-0.625,1.171875,-0.203125
