,timestamp,accel_x,accel_y,accel_z,gyro_x,gyro_y,gyro_z
0,1695730418944,-0.43530273,-0.78131104,0.6207886,5.140625,4.890625,1.453125
1,1695730418976,-0.42236328,-0.7835083,0.60369873,6.265625,4.125,1.015625
2,1695730419017,-0.41503906,-0.7686157,0.6022339,6.546875,5.796875,1.328125
3,1695730419063,-0.42529297,-0.80059814,0.58880615,3.34375,6.046875,1.125
4,1695730419092,-0.41015625,-0.7979126,0.5997925,3.90625,4.84375,2.828125
5,1695730419138,-0.39770508,-0.7761841,0.6034546,3.984375,1.390625,3.4375
6,1695730419168,-0.41479492,-0.8062134,0.59539795,2.78125,1.15625,2.421875
7,1695730419213,-0.40795898,-0.7937622,0.59051514,3.40625,-0.21875,1.25
8,1695730419259,-0.40283203,-0.80181885,0.57196045,3.59375,-1.28125,0.828125
9,1695730419289,-0.39501953,-0.79815674,0.57562256,1.875,0.28125,0.0625
10,1695730419333,-0.40039062,-0.81378174,0.5734253,3.875,0.671875,2.328125
11,1695730419378,-0.36547852,-0.8088989,0.57147217,0.75,1.71875,1.4375
12,1695730419409,-0.37768555,-0.8135376,0.5704956,0.046875,0.640625,1.03125
13,1695730419452,-0.3857422,-0.81329346,0.5700073,1.171875,0.421875,1.453125
14,1695730419483,-0.38671875,-0.815979,0.57244873,1.203125,0.65625,1.375
15,1695730419528,-0.38623047,-0.80426025,0.555603,-0.34375,0.40625,-0.109375
16,1695730419589,-0.41748047,-0.81988525,0.54852295,0.5625,1.046875,0.796875
17,1695730419602,-0.39331055,-0.8230591,0.5631714,0.796875,0.703125,0.109375
18,1695730419648,-0.38867188,-0.82037354,0.5619507,-1.828125,1.1875,-0.96875
19,1695730419693,-0.39672852,-0.8152466,0.555603,-1.546875,0.6875,-1.515625
20,1695730419723,-0.39770508,-0.81988525,0.5651245,-2.625,0.6875,-0.40625
21,1695730419770,-0.3942871,-0.81427,0.5692749,-1.125,0.359375,-0.703125
22,1695730419800,-0.39208984,-0.80255127,0.56781006,-3.03125,-0.515625,-1.171875
23,1695730419845,-0.4140625,-0.80963135,0.5648804,-2.59375,-1.390625,-0.46875
24,1695730419889,-0.40942383,-0.800354,0.56781006,-3.5,0.25,-0.90625
25,1695730419919,-0.40478516,-0.8015747,0.5697632,-2.375,0.1875,0.484375
26,1695730419964,-0.38745117,-0.80255127,0.5883179,-2.875,0.140625,-0.28125
27,1695730420009,-0.4038086,-0.80426025,0.59124756,-1.859375,0.546875,-0.640625
28,1695730420039,-0.4111328,-0.7979126,0.57196045,-4.53125,-0.140625,-2.734375
29,1695730420084,-0.40820312,-0.7896118,0.59002686,-2.78125,-0.515625,-2.3125
30,1695730420113,-0.41992188,-0.7805786,0.5922241,-3.453125,-0.109375,-1.5625
31,1695730420159,-0.43945312,-0.7854614,0.58758545,-2.78125,1.1875,-0.59375
32,1695730420204,-0.39892578,-0.7854614,0.59295654,-4.84375,1.296875,-1.84375
33,1695730420234,-0.41381836,-0.78204346,0.5973511,-1.09375,0.625,-0.71875
34,1695730420280,-0.4169922,-0.7835083,0.60980225,0.578125,0.15625,-0.8125
35,1695730420323,-0.41723633,-0.77716064,0.60321045,-1.90625,-0.015625,-1.109375
36,1695730420354,-0.43774414,-0.7876587,0.590271,-2.5,0.15625,-1.25
37,1695730420401,-0.43139648,-0.7835083,0.60150146,-0.640625,0.59375,-0.140625
38,1695730420445,-0.41015625,-0.7686157,0.60809326,0.484375,-1.6875,-0.953125
39,1695730420475,-0.44921875,-0.7542114,0.59906006,-3.53125,-0.609375,-0.078125
40,1695730420518,-0.47338867,-0.7942505,0.5741577,-5.6875,-0.40625,3.0
41,1695730420548,-0.40185547,-0.798645,0.6185913,-0.203125,-0.296875,1.09375
42,1695730420594,-0.3857422,-0.7539673,0.62835693,4.53125,-3.171875,-2.734375
43,1695730420639,-0.44580078,-0.76031494,0.5993042,0.9375,-4.890625,-3.046875
44,1695730420685,-0.45629883,-0.7720337,0.56414795,-2.78125,-2.765625,0.734375
45,1695730420714,-0.40942383,-0.77178955,0.59002686,-3.265625,0.859375,-1.453125
46,1695730420761,-0.484375,-0.7908325,0.5778198,-2.375,3.96875,1.96875
47,1695730420788,-0.41870117,-0.7737427,0.59954834,0.3125,2.640625,0.90625
48,1695730420834,-0.44628906,-0.76934814,0.61395264,-0.15625,5.828125,0.5625
49,1695730420864,-0.44458008,-0.784729,0.5961304,-3.8125,2.765625,0.65625
50,1695730420909,-0.40551758,-0.7744751,0.61639404,0.546875,2.046875,-0.5
51,1695730420969,-0.45507812,-0.78253174,0.61395264,1.421875,3.296875,0.03125
52,1695730420985,-0.46240234,-0.7786255,0.59198,-3.484375,2.328125,0.046875
53,1695730421029,-0.43481445,-0.7835083,0.62054443,1.640625,3.421875,1.515625
54,1695730421105,-0.3984375,-0.76446533,0.6063843,0.953125,1.46875,-1.015625
55,1695730421107,-0.4189453,-0.7803345,0.6234741,-0.0625,0.609375,-1.3125
56,1695730421149,-0.42211914,-0.7756958,0.5985718,-2.125,-0.234375,-1.09375
57,1695730421178,-0.43017578,-0.75372314,0.5988159,0.171875,-0.46875,0.6875
58,1695730421225,-0.42285156,-0.7971802,0.5844116,-8.3125,-4.359375,1.15625
59,1695730421271,-0.42700195,-0.7654419,0.62542725,-8.375,-3.890625,-3.296875
60,1695730421299,-0.4729004,-0.7263794,0.6420288,-1.5,-0.9375,-2.546875
61,1695730421345,-0.46362305,-0.7449341,0.62786865,-1.8125,0.90625,-0.34375
62,1695730421390,-0.44360352,-0.75445557,0.6137085,-1.671875,0.421875,-0.59375
63,1695730421419,-0.45263672,-0.7493286,0.6168823,-0.515625,0.328125,0.40625
64,1695730421465,-0.4465332,-0.7476196,0.6195679,-1.96875,1.859375,-0.265625
65,1695730421495,-0.43139648,-0.7859497,0.6046753,-7.046875,-3.109375,0.609375
66,1695730421539,-0.43676758,-0.7612915,0.6071167,-15.015625,-3.40625,-3.359375
67,1695730421585,-0.453125,-0.71221924,0.69989014,-3.796875,1.53125,-5.65625
68,1695730421614,-0.46484375,-0.7085571,0.64520264,-6.515625,-1.125,-3.328125
69,1695730421660,-0.46435547,-0.72052,0.65008545,-6.828125,0.390625,-2.4375
70,1695730421705,-0.47460938,-0.70562744,0.65838623,-3.140625,-0.09375,-2.34375
71,1695730421737,-0.4753418,-0.7073364,0.67230225,0.515625,1.0,-1.5625
72,1695730421780,-0.4807129,-0.6956177,0.6679077,0.734375,2.734375,-0.109375
73,1695730421810,-0.47802734,-0.68878174,0.6713257,2.890625,2.078125,0.90625
74,1695730421855,-0.4970703,-0.7061157,0.67645264,14.625,2.875,3.578125
75,1695730421899,-0.47265625,-0.7461548,0.604187,7.796875,3.03125,3.5625
76,1695730421931,-0.44335938,-0.7522583,0.6117554,2.234375,0.5,2.796875
77,1695730421974,-0.4543457,-0.7402954,0.61517334,5.734375,2.53125,1.015625
78,1695730422021,-0.47021484,-0.7383423,0.6251831,5.953125,4.34375,1.953125
79,1695730422049,-0.4477539,-0.75250244,0.62493896,1.328125,1.46875,1.90625
80,1695730422095,-0.44726562,-0.76690674,0.61517334,1.78125,1.21875,1.359375
81,1695730422130,-0.43481445,-0.7546997,0.60491943,2.46875,2.5625,1.8125
82,1695730422169,-0.4338379,-0.77593994,0.6210327,0.171875,1.265625,2.078125
83,1695730422218,-0.4440918,-0.7671509,0.6195679,2.796875,1.96875,1.421875
84,1695730422251,-0.43603516,-0.74884033,0.6112671,4.390625,2.96875,1.421875
85,1695730422290,-0.4333496,-0.7546997,0.6083374,-0.5,1.71875,1.625
86,1695730422335,-0.44262695,-0.78570557,0.61053467,0.71875,1.5625,2.4375
87,1695730422368,-0.42578125,-0.7752075,0.6161499,4.1875,2.046875,1.03125
88,1695730422409,-0.44433594,-0.7529907,0.60272217,2.171875,3.140625,1.328125
89,1695730422440,-0.43554688,-0.77545166,0.6034546,-0.0625,1.96875,1.265625
90,1695730422486,-0.4128418,-0.7683716,0.6227417,1.71875,1.71875,0.578125
91,1695730422530,-0.43310547,-0.78375244,0.58880615,0.4375,1.296875,0.59375
92,1695730422559,-0.4272461,-0.77349854,0.5980835,0.59375,1.78125,0.640625
93,1695730422605,-0.41967773,-0.79107666,0.60028076,2.671875,1.984375,1.1875
94,1695730422649,-0.4116211,-0.788147,0.5993042,0.90625,1.0625,0.609375
95,1695730422680,-0.41601562,-0.7852173,0.5934448,0.125,1.015625,0.78125
96,1695730422725,-0.42773438,-0.78302,0.5824585,-1.09375,1.03125,0.6875
97,1695730422755,-0.41186523,-0.7876587,0.60028076,2.21875,0.625,1.609375
98,1695730422800,-0.4111328,-0.78448486,0.6010132,0.265625,0.515625,0.46875
99,1695730422845,-0.42700195,-0.7839966,0.5866089,-1.203125,0.25,1.0
100,1695730422874,-0.4165039,-0.788147,0.5883179,-1.78125,-0.234375,0.421875
101,1695730422921,-0.41918945,-0.7893677,0.60809326,-0.796875,0.65625,-0.28125
102,1695730422966,-0.43066406,-0.78448486,0.5927124,-1.359375,0.515625,-0.09375
103,1695730422995,-0.4177246,-0.7815552,0.60076904,-0.6875,0.1875,-0.015625
104,1695730423040,-0.41870117,-0.7774048,0.5907593,-0.6875,1.015625,0.359375
105,1695730423069,-0.42456055,-0.7827759,0.5963745,-1.953125,1.09375,0.359375
106,1695730423116,-0.40649414,-0.79351807,0.6124878,-0.0625,0.796875,-0.140625
107,1695730423159,-0.4230957,-0.78619385,0.5878296,0.984375,0.015625,-0.5
108,1695730423193,-0.41186523,-0.77130127,0.58758545,-1.484375,0.984375,-0.265625
109,1695730423236,-0.42041016,-0.77911377,0.61151123,-0.390625,0.828125,1.078125
110,1695730423280,-0.4326172,-0.79278564,0.60076904,-0.796875,0.703125,0.140625
111,1695730423309,-0.41845703,-0.784729,0.59173584,-1.734375,0.515625,-1.515625
112,1695730423355,-0.41357422,-0.77593994,0.6029663,0.375,0.234375,-0.640625
113,1695730423385,-0.42407227,-0.78253174,0.604187,-1.640625,0.390625,-0.546875
114,1695730423429,-0.43798828,-0.78448486,0.60028076,-1.515625,1.65625,0.046875
115,1695730423475,-0.41967773,-0.77423096,0.6039429,-1.453125,0.984375,-0.046875
116,1695730423505,-0.4182129,-0.77178955,0.59588623,-1.375,0.4375,-0.15625
117,1695730423564,-0.42236328,-0.7774048,0.6132202,-0.265625,0.390625,0.890625
118,1695730423595,-0.4152832,-0.76885986,0.60614014,-1.375,-0.625,-1.265625
119,1695730423625,-0.43969727,-0.76690674,0.6005249,-2.625,0.65625,-0.78125
120,1695730423671,-0.43188477,-0.7769165,0.60809326,-2.890625,0.6875,-0.359375
121,1695730423700,-0.4404297,-0.7776489,0.6100464,-0.421875,0.75,0.390625
122,1695730423745,-0.4321289,-0.7752075,0.61468506,-0.46875,0.46875,-1.046875
123,1695730423791,-0.4387207,-0.76153564,0.62908936,-0.234375,1.703125,-1.53125
124,1695730423819,-0.43652344,-0.76031494,0.5873413,-2.390625,0.578125,-1.875
125,1695730423864,-0.42407227,-0.77301025,0.6124878,0.140625,1.609375,-0.703125
126,1695730423911,-0.4375,-0.7661743,0.6124878,-2.46875,1.71875,-0.8125
127,1695730423942,-0.4477539,-0.7637329,0.60736084,-0.8125,1.65625,0.140625
128,1695730423985,-0.42260742,-0.7608032,0.6305542,3.078125,1.15625,0.765625
129,1695730424015,-0.44702148,-0.7649536,0.5910034,-3.96875,0.03125,-0.21875
130,1695730424059,-0.43139648,-0.7661743,0.62054443,-1.515625,-0.09375,-0.859375
131,1695730424105,-0.44580078,-0.7715454,0.62493896,0.375,0.265625,-1.3125
132,1695730424137,-0.44458008,-0.7554321,0.6137085,0.625,0.296875,-0.15625
133,1695730424180,-0.42504883,-0.7546997,0.6095581,-2.53125,-0.28125,-0.8125
134,1695730424225,-0.45532227,-0.7539673,0.61712646,-1.625,1.15625,0.359375
135,1695730424255,-0.45141602,-0.76031494,0.6054077,0.328125,0.421875,0.96875
136,1695730424300,-0.42333984,-0.75738525,0.61053467,0.328125,1.40625,0.25
137,1695730424347,-0.43676758,-0.7564087,0.6095581,-1.84375,1.21875,0.0
138,1695730424379,-0.45825195,-0.7744751,0.6141968,-1.765625,2.03125,0.734375
139,1695730424419,-0.43725586,-0.7564087,0.62420654,2.078125,1.125,1.3125
140,1695730424450,-0.43432617,-0.75250244,0.6124878,-1.578125,2.1875,-0.1875
141,1695730424496,-0.42260742,-0.772522,0.6190796,-2.484375,1.109375,-0.15625
142,1695730424538,-0.43774414,-0.7666626,0.62786865,-0.796875,0.375,-0.546875
143,1695730424569,-0.43945312,-0.7527466,0.62054443,0.125,0.96875,-0.21875
144,1695730424614,-0.43359375,-0.7354126,0.6190796,-2.109375,0.875,-0.484375
145,1695730424661,-0.47070312,-0.7654419,0.61761475,-2.71875,0.859375,1.578125
146,1695730424689,-0.4428711,-0.7498169,0.6154175,-0.671875,1.9375,1.40625
147,1695730424735,-0.4230957,-0.75787354,0.6246948,-2.453125,0.671875,0.296875
148,1695730424765,-0.4326172,-0.75372314,0.62957764,-3.109375,0.96875,-1.328125
149,1695730424812,-0.4453125,-0.76348877,0.6359253,-0.78125,1.328125,-0.375
150,1695730424856,-0.43408203,-0.74957275,0.6400757,1.296875,1.578125,-0.75
151,1695730424884,-0.43188477,-0.7439575,0.62713623,-3.75,2.015625,-1.140625
152,1695730424929,-0.4404297,-0.75494385,0.62908936,0.234375,0.984375,0.0
153,1695730424975,-0.42358398,-0.7600708,0.63983154,1.5,1.109375,-0.578125
154,1695730425005,-0.4375,-0.7559204,0.6322632,0.328125,2.484375,-1.9375
155,1695730425050,-0.44799805,-0.74298096,0.62005615,-2.234375,1.328125,-0.140625
156,1695730425080,-0.44970703,-0.76446533,0.63983154,0.0,2.59375,0.84375
157,1695730425126,-0.43798828,-0.74591064,0.62542725,-1.265625,3.03125,0.09375
158,1695730425170,-0.4465332,-0.7473755,0.6334839,-1.59375,6.46875,0.09375
159,1695730425205,-0.41748047,-0.7505493,0.63616943,-1.40625,5.25,1.296875
160,1695730425247,-0.43017578,-0.7493286,0.6466675,-2.640625,3.171875,0.46875
161,1695730425321,-0.42749023,-0.741272,0.64837646,-1.328125,2.9375,-0.4375
162,1695730425324,-0.41430664,-0.7354126,0.6535034,-1.78125,2.53125,0.109375
163,1695730425367,-0.42211914,-0.75982666,0.6618042,-1.078125,0.90625,-0.125
164,1695730425396,-0.4140625,-0.7444458,0.6622925,2.109375,0.484375,-1.234375
165,1695730425440,-0.4284668,-0.7385864,0.6461792,-1.609375,0.703125,-1.796875
166,1695730425486,-0.4260254,-0.7317505,0.64642334,-1.8125,0.109375,-1.375
167,1695730425518,-0.44067383,-0.7473755,0.67230225,-1.125,0.65625,0.65625
168,1695730425560,-0.4272461,-0.7312622,0.65911865,-0.03125,0.40625,-0.4375
169,1695730425605,-0.42626953,-0.7312622,0.64642334,-0.859375,0.28125,0.6875
170,1695730425635,-0.4248047,-0.74346924,0.65057373,-2.734375,0.453125,-0.53125
171,1695730425680,-0.45166016,-0.75787354,0.63983154,-0.8125,1.859375,0.296875
172,1695730425710,-0.41967773,-0.73638916,0.63739014,-2.21875,1.15625,0.53125
173,1695730425755,-0.3955078,-0.72979736,0.66448975,1.859375,3.328125,0.15625
174,1695730425800,-0.40454102,-0.73516846,0.66741943,-3.3125,0.15625,-0.71875
175,1695730425830,-0.4633789,-0.6951294,0.6403198,-10.328125,1.4375,1.1875
176,1695730425875,-0.45947266,-0.7085571,0.6642456,-7.546875,1.53125,3.171875
177,1695730425922,-0.41870117,-0.73638916,0.7238159,-2.65625,3.25,1.328125
178,1695730425951,-0.39331055,-0.7854614,0.7015991,0.796875,1.609375,-4.421875
179,1695730426027,-0.40625,-0.7461548,0.6769409,5.90625,-0.234375,-4.71875
180,1695730426030,-0.37036133,-0.71221924,0.6535034,5.84375,-0.25,-5.25
181,1695730426070,-0.42529297,-0.67022705,0.68084717,-0.140625,2.734375,-1.34375
182,1695730426115,-0.49731445,-0.6848755,0.6403198,-12.890625,0.78125,3.765625
183,1695730426146,-0.4873047,-0.74713135,0.6676636,-2.984375,-0.46875,10.0625
184,1695730426189,-0.41479492,-0.7642212,0.75213623,-0.046875,3.53125,1.734375
185,1695730426234,-0.4404297,-0.7625122,0.7008667,6.09375,-0.78125,-5.25
186,1695730426264,-0.41552734,-0.73028564,0.6351929,2.5625,-1.875,-6.703125
187,1695730426309,-0.39648438,-0.7300415,0.637146,3.15625,-2.09375,-4.71875
188,1695730426339,-0.3947754,-0.74591064,0.6610718,6.0625,0.6875,-4.375
189,1695730426386,-0.43701172,-0.7473755,0.62493896,-1.53125,1.34375,-2.671875
190,1695730426432,-0.4440918,-0.70147705,0.63568115,1.71875,3.015625,-1.21875
191,1695730426459,-0.4741211,-0.6946411,0.68182373,-3.21875,1.6875,0.46875
192,1695730426505,-0.4885254,-0.7034302,0.68499756,-4.9375,3.59375,1.140625
193,1695730426566,-0.45874023,-0.70928955,0.69281006,1.09375,0.296875,0.265625
194,1695730426579,-0.4753418,-0.7017212,0.6798706,1.90625,-0.5625,0.359375
195,1695730426625,-0.4675293,-0.7070923,0.668396,1.375,-4.125,0.171875
196,1695730426655,-0.47436523,-0.7017212,0.6654663,-4.9375,-0.03125,-0.640625
197,1695730426700,-0.44995117,-0.7214966,0.6610718,1.734375,1.25,-0.46875
198,1695730426745,-0.41137695,-0.7307739,0.6744995,2.25,1.796875,1.84375
199,1695730426775,-0.4169922,-0.7288208,0.6725464,2.15625,2.21875,0.125
200,1695730426819,-0.4375,-0.725647,0.6469116,5.296875,3.34375,1.25
201,1695730426864,-0.43017578,-0.72052,0.6425171,6.046875,1.984375,1.84375
202,1695730426896,-0.43701172,-0.7288208,0.6539917,3.734375,0.984375,1.84375
203,1695730426941,-0.45947266,-0.7661743,0.6395874,4.421875,0.65625,1.671875
204,1695730426968,-0.43945312,-0.7444458,0.6342163,4.765625,1.3125,0.484375
205,1695730427013,-0.44433594,-0.7515259,0.62005615,3.6875,1.109375,1.546875
206,1695730427075,-0.42919922,-0.7666626,0.6305542,6.25,-0.25,1.0625
207,1695730427089,-0.44799805,-0.76348877,0.6090698,2.203125,1.0625,0.140625
208,1695730427136,-0.43920898,-0.7654419,0.60443115,3.484375,1.875,0.921875
209,1695730427179,-0.41430664,-0.77227783,0.61712646,2.796875,2.078125,0.578125
210,1695730427210,-0.43774414,-0.75860596,0.60980225,0.25,1.609375,1.0625
211,1695730427254,-0.4428711,-0.78302,0.6000366,0.96875,1.421875,1.171875
212,1695730427284,-0.4169922,-0.7698364,0.6112671,3.5625,0.640625,1.484375
213,1695730427328,-0.4248047,-0.76275635,0.6144409,2.8125,0.125,0.1875
214,1695730427373,-0.43798828,-0.7703247,0.60443115,0.46875,0.359375,0.640625
215,1695730427403,-0.42797852,-0.7774048,0.5946655,0.078125,0.234375,0.625
216,1695730427449,-0.43359375,-0.7817993,0.59539795,-0.421875,-0.21875,0.828125
217,1695730427494,-0.43359375,-0.7686157,0.61932373,0.4375,0.578125,0.828125
218,1695730427526,-0.42626953,-0.78302,0.59124756,-0.734375,0.46875,-0.453125
219,1695730427570,-0.42163086,-0.77423096,0.5956421,-0.734375,1.171875,-0.75
220,1695730427600,-0.43701172,-0.7637329,0.59906006,-0.75,0.375,-0.328125
221,1695730427645,-0.4411621,-0.7737427,0.60491943,-0.96875,1.515625,0.171875
222,1695730427690,-0.42236328,-0.78326416,0.61224365,-0.53125,0.65625,-0.296875
223,1695730427720,-0.43066406,-0.76885986,0.60150146,0.875,0.5,-1.0625
224,1695730427767,-0.4423828,-0.76812744,0.6054077,0.8125,0.5625,0.3125
225,1695730427810,-0.4453125,-0.7817993,0.6051636,-1.734375,0.28125,1.640625
226,1695730427839,-0.43725586,-0.7839966,0.5988159,0.09375,0.25,0.96875
227,1695730427886,-0.40893555,-0.7683716,0.6010132,1.875,-2.5,-0.71875
228,1695730427915,-0.4465332,-0.7498169,0.6039429,-0.234375,-2.09375,-0.734375
229,1695730427961,-0.43847656,-0.79473877,0.58587646,1.296875,-0.375,1.71875
230,1695730428019,-0.40942383,-0.7695923,0.6173706,3.703125,-0.3125,0.765625
231,1695730428035,-0.4638672,-0.7888794,0.576355,1.328125,1.5625,2.875
232,1695730428096,-0.44262695,-0.7822876,0.56292725,-0.53125,2.140625,1.90625
233,1695730428127,-0.4440918,-0.77349854,0.5709839,-3.390625,4.078125,3.03125
234,1695730428155,-0.41992188,-0.7859497,0.5895386,-1.328125,1.4375,2.734375
235,1695730428200,-0.41503906,-0.7996216,0.59002686,-1.515625,1.53125,0.484375
236,1695730428245,-0.42382812,-0.8147583,0.57440186,-3.3125,0.03125,-1.171875
237,1695730428282,-0.41210938,-0.7805786,0.59198,-0.765625,-0.671875,-2.3125
238,1695730428320,-0.42993164,-0.77227783,0.6119995,-2.03125,0.359375,-0.21875
239,1695730428349,-0.43725586,-0.7852173,0.5973511,-1.328125,1.6875,0.0
240,1695730428396,-0.40161133,-0.76763916,0.6005249,-1.90625,-0.015625,1.34375
241,1695730428440,-0.4326172,-0.77130127,0.6185913,-3.703125,2.34375,1.5
242,1695730428470,-0.44702148,-0.78912354,0.60858154,-1.15625,0.9375,2.734375
243,1695730428516,-0.42163086,-0.76885986,0.6071167,-3.625,0.921875,0.203125
244,1695730428560,-0.41308594,-0.7810669,0.61590576,-1.40625,0.125,-0.90625
245,1695730428590,-0.42163086,-0.76690674,0.6078491,-1.640625,-0.953125,-2.0625
246,1695730428635,-0.44921875,-0.7659302,0.6054077,-0.34375,-1.21875,-0.796875
247,1695730428666,-0.43237305,-0.7595825,0.5944214,-2.5625,0.125,-0.40625
248,1695730428710,-0.43041992,-0.7661743,0.6088257,-2.453125,0.890625,0.34375
249,1695730428754,-0.43896484,-0.78009033,0.61712646,-2.59375,2.171875,0.90625
250,1695730428785,-0.44140625,-0.76104736,0.6051636,-3.5625,2.984375,0.53125
251,1695730428829,-0.4189453,-0.7737427,0.6383667,-1.09375,3.859375,0.8125
252,1695730428875,-0.42382812,-0.7605591,0.6256714,-0.390625,0.984375,0.78125
253,1695730428905,-0.4194336,-0.7764282,0.6351929,0.71875,1.84375,0.625
254,1695730428950,-0.43164062,-0.769104,0.6220093,-2.828125,1.0,-0.71875
255,1695730428979,-0.42993164,-0.75616455,0.6273804,-2.15625,1.046875,-1.03125
256,1695730429023,-0.42871094,-0.75665283,0.6322632,-1.328125,1.03125,0.40625
257,1695730429069,-0.42578125,-0.75665283,0.6178589,-2.109375,0.609375,0.75
258,1695730429099,-0.40600586,-0.78009033,0.60198975,-6.015625,-5.140625,1.875
259,1695730429145,-0.39575195,-0.7595825,0.64227295,-5.640625,-6.28125,1.5
260,1695730429220,-0.43920898,-0.7456665,0.6515503,2.5,-1.046875,0.390625
261,1695730429222,-0.43725586,-0.74102783,0.6312866,-1.390625,-1.03125,-1.140625
262,1695730429265,-0.41967773,-0.75079346,0.6281128,-1.265625,-2.0625,-0.203125
263,1695730429298,-0.45483398,-0.7456665,0.62127686,-3.453125,1.0625,-1.328125
264,1695730429340,-0.46166992,-0.756897,0.64642334,-0.234375,2.46875,1.390625
265,1695730429385,-0.44335938,-0.7461548,0.6437378,-2.4375,1.109375,0.921875
266,1695730429416,-0.45458984,-0.7398071,0.6395874,-0.28125,0.984375,0.484375
267,1695730429461,-0.4494629,-0.7444458,0.63397217,0.484375,2.015625,0.203125
268,1695730429506,-0.43041992,-0.75616455,0.62908936,-1.453125,1.546875,0.453125
269,1695730429537,-0.43115234,-0.7481079,0.6425171,-0.734375,1.625,-0.125
270,1695730429581,-0.43432617,-0.74005127,0.62420654,0.328125,1.75,0.6875
271,1695730429610,-0.4169922,-0.7444458,0.65179443,2.125,3.203125,1.421875
272,1695730429655,-0.4260254,-0.75787354,0.6312866,-0.75,1.90625,0.1875
273,1695730429699,-0.41601562,-0.75616455,0.6322632,1.296875,1.265625,-1.125
274,1695730429730,-0.42114258,-0.7625122,0.6412964,6.59375,3.03125,-0.109375
275,1695730429775,-0.44262695,-0.7383423,0.6251831,5.328125,5.15625,1.15625
276,1695730429819,-0.43823242,-0.7749634,0.6317749,3.265625,5.0,1.84375
277,1695730429849,-0.42260742,-0.7752075,0.62127686,4.640625,4.859375,1.140625
278,1695730429894,-0.41845703,-0.7739868,0.61639404,7.953125,4.3125,1.28125
279,1695730429926,-0.40112305,-0.77130127,0.6117554,2.234375,2.8125,0.90625
280,1695730429970,-0.4182129,-0.78204346,0.6095581,2.015625,4.140625,1.109375
281,1695730430017,-0.40527344,-0.78863525,0.6166382,4.078125,3.453125,2.1875
282,1695730430046,-0.3947754,-0.7810669,0.5951538,2.984375,3.78125,1.984375
283,1695730430089,-0.3798828,-0.7854614,0.6022339,1.921875,2.734375,0.859375
284,1695730430135,-0.39282227,-0.7932739,0.5993042,2.328125,1.65625,1.53125
285,1695730430167,-0.40234375,-0.79644775,0.59173584,3.15625,2.421875,1.5625
286,1695730430209,-0.39135742,-0.79644775,0.5939331,4.0,2.5,2.0625
287,1695730430239,-0.3815918,-0.7908325,0.5934448,2.6875,2.375,2.046875
288,1695730430285,-0.40283203,-0.8230591,0.59710693,2.953125,2.578125,1.515625
289,1695730430329,-0.38891602,-0.7966919,0.58709717,1.890625,2.109375,0.875
290,1695730430358,-0.3774414,-0.8147583,0.5765991,1.609375,1.5625,0.90625
291,1695730430404,-0.37304688,-0.81036377,0.5907593,-1.28125,1.203125,0.1875
292,1695730430464,-0.3876953,-0.8171997,0.5844116,1.1875,1.125,1.234375
293,1695730430479,-0.37402344,-0.80352783,0.5787964,0.796875,1.234375,1.6875
294,1695730430525,-0.37231445,-0.80303955,0.5651245,-3.8125,0.109375,0.84375
295,1695730430556,-0.3701172,-0.835022,0.60369873,0.421875,0.921875,0.203125
296,1695730430600,-0.37426758,-0.82159424,0.58270264,1.9375,0.84375,0.25
297,1695730430647,-0.36035156,-0.8106079,0.57733154,0.203125,0.609375,0.125
298,1695730430680,-0.37695312,-0.7996216,0.5836792,-0.890625,0.484375,0.046875
299,1695730430720,-0.3852539,-0.8335571,0.590271,0.8125,0.359375,0.8125
300,1695730430765,-0.38208008,-0.8015747,0.59173584,0.234375,1.25,-0.203125
301,1695730430796,-0.38012695,-0.7942505,0.5661011,-0.671875,0.25,0.265625
302,1695730430840,-0.37597656,-0.8152466,0.59783936,-0.53125,0.296875,1.078125
303,1695730430887,-0.38916016,-0.8284302,0.59588623,-0.953125,-0.078125,0.734375
304,1695730430916,-0.38085938,-0.8076782,0.5831909,-0.40625,0.703125,-0.203125
305,1695730430960,-0.38134766,-0.7959595,0.58514404,-0.890625,0.515625,-0.078125
306,1695730430990,-0.37768555,-0.8140259,0.56658936,-3.375,-0.015625,-0.125
307,1695730431036,-0.3647461,-0.8069458,0.604187,0.421875,1.5,0.328125
308,1695730431080,-0.37670898,-0.8130493,0.5639038,-2.171875,-0.265625,-0.75
309,1695730431109,-0.37817383,-0.8106079,0.5824585,0.1875,1.203125,-0.84375
310,1695730431155,-0.3869629,-0.8118286,0.5853882,-0.640625,0.078125,0.15625
311,1695730431185,-0.37963867,-0.80792236,0.58709717,-0.28125,0.609375,0.640625
312,1695730431229,-0.39135742,-0.81427,0.586853,-2.171875,0.328125,-1.0
313,1695730431275,-0.39331055,-0.7949829,0.58587646,-1.234375,0.296875,-0.484375
314,1695730431305,-0.39770508,-0.80426025,0.5817261,-1.03125,0.59375,0.625
315,1695730431350,-0.36767578,-0.80010986,0.59417725,-0.59375,1.140625,0.046875
316,1695730431395,-0.38964844,-0.8032837,0.5956421,-1.828125,0.953125,-0.34375
317,1695730431425,-0.39135742,-0.815979,0.5956421,-1.515625,0.46875,0.03125
318,1695730431470,-0.3815918,-0.7896118,0.59539795,0.46875,0.5625,-0.1875
319,1695730431499,-0.3864746,-0.7810669,0.58026123,-1.375,1.015625,0.078125
320,1695730431548,-0.38085938,-0.8118286,0.5829468,-2.328125,0.390625,0.5
321,1695730431591,-0.37646484,-0.8196411,0.60028076,0.390625,0.515625,-0.265625
322,1695730431622,-0.38452148,-0.7971802,0.5873413,0.796875,0.421875,-0.859375
323,1695730431665,-0.39038086,-0.7883911,0.58026123,-2.0625,0.5625,0.671875
324,1695730431709,-0.39575195,-0.79766846,0.60076904,-1.625,0.109375,1.078125
325,1695730431739,-0.39257812,-0.8118286,0.6090698,0.015625,0.90625,0.1875
326,1695730431785,-0.3815918,-0.798645,0.57733154,-1.90625,0.03125,-1.28125
327,1695730431830,-0.390625,-0.7930298,0.60491943,-1.15625,0.546875,-1.28125
328,1695730431859,-0.3972168,-0.8088989,0.5939331,-1.3125,0.359375,0.4375
329,1695730431905,-0.39013672,-0.798645,0.59051514,-1.234375,1.09375,-0.140625
330,1695730431935,-0.38793945,-0.7876587,0.5956421,-1.671875,0.90625,-0.171875
331,1695730431980,-0.39208984,-0.79473877,0.58709717,-1.984375,0.265625,-0.21875
332,1695730432025,-0.39135742,-0.80352783,0.59832764,-0.875,-0.25,0.8125
333,1695730432056,-0.38110352,-0.7908325,0.6017456,-1.859375,0.109375,-0.6875
334,1695730432100,-0.39501953,-0.78912354,0.6005249,-0.546875,0.65625,-0.640625
335,1695730432145,-0.4025879,-0.7930298,0.6010132,-2.0,0.484375,-0.609375
336,1695730432175,-0.40722656,-0.7905884,0.61053467,-1.671875,0.546875,0.515625
337,1695730432220,-0.39697266,-0.7962036,0.60272217,-1.53125,0.5625,0.40625
338,1695730432249,-0.39648438,-0.7954712,0.6078491,-1.46875,0.671875,-0.359375
339,1695730432297,-0.39160156,-0.7893677,0.6112671,-0.484375,0.3125,-1.046875
340,1695730432338,-0.4025879,-0.78009033,0.59198,-0.578125,0.40625,-0.5
341,1695730432370,-0.40478516,-0.78326416,0.61273193,-2.078125,0.890625,-0.375
342,1695730432416,-0.40283203,-0.79034424,0.6088257,-1.234375,0.21875,1.765625
343,1695730432458,-0.38964844,-0.78448486,0.61224365,-0.453125,0.828125,-0.015625
344,1695730432488,-0.3959961,-0.78741455,0.60272217,-2.53125,0.484375,-1.140625
345,1695730432537,-0.40551758,-0.7817993,0.6078491,-2.671875,-0.0625,-0.421875
346,1695730432563,-0.39892578,-0.78863525,0.62371826,-1.078125,0.203125,-0.140625
347,1695730432609,-0.41259766,-0.77667236,0.6141968,-1.265625,1.015625,-0.703125
348,1695730432652,-0.40112305,-0.78912354,0.6046753,-2.765625,-0.109375,-1.390625
349,1695730432684,-0.4020996,-0.7810669,0.61395264,-0.65625,0.4375,-0.390625
350,1695730432729,-0.40771484,-0.7896118,0.61834717,-0.65625,0.65625,0.671875
351,1695730432775,-0.39819336,-0.77130127,0.62249756,-1.609375,0.75,-1.0
352,1695730432805,-0.40307617,-0.77301025,0.6207886,-0.921875,1.046875,-0.234375
353,1695730432850,-0.4189453,-0.7883911,0.61932373,-1.078125,1.234375,0.171875
354,1695730432880,-0.41503906,-0.7671509,0.62176514,-1.828125,0.890625,-0.28125
355,1695730432925,-0.40820312,-0.7788696,0.6259155,-0.875,0.96875,-0.46875
356,1695730432970,-0.4086914,-0.77593994,0.6173706,-0.4375,0.453125,-1.0625
357,1695730433000,-0.42211914,-0.7737427,0.6195679,-0.734375,1.28125,-0.359375
358,1695730433045,-0.40844727,-0.7642212,0.621521,-0.6875,1.109375,0.171875
359,1695730433088,-0.4091797,-0.76934814,0.61273193,-2.265625,0.375,-0.0625
360,1695730433120,-0.40698242,-0.77227783,0.63153076,-1.546875,0.8125,-0.0625
361,1695730433169,-0.41088867,-0.7761841,0.6210327,1.375,0.90625,-0.65625
362,1695730433198,-0.4038086,-0.7612915,0.618103,-0.5625,0.796875,-1.65625
363,1695730433240,-0.41796875,-0.75982666,0.62323,-0.953125,0.265625,-0.75
364,1695730433284,-0.42333984,-0.77227783,0.61639404,-2.15625,0.109375,-0.015625
365,1695730433315,-0.42651367,-0.77349854,0.6312866,-2.484375,0.8125,-0.515625
366,1695730433360,-0.42138672,-0.7720337,0.6376343,0.09375,1.5,-0.625
367,1695730433410,-0.42260742,-0.7715454,0.6251831,1.5625,0.375,-0.234375
368,1695730433435,-0.4091797,-0.7595825,0.62615967,-0.984375,1.34375,-1.03125
369,1695730433480,-0.42773438,-0.7605591,0.6264038,0.578125,2.03125,-0.09375
370,1695730433510,-0.42041016,-0.7698364,0.61834717,-0.5625,2.78125,-0.46875
371,1695730433569,-0.4038086,-0.7637329,0.6329956,1.640625,1.953125,0.328125
372,1695730433601,-0.42114258,-0.7620239,0.62127686,-2.0625,2.171875,-0.40625
373,1695730433631,-0.4177246,-0.76519775,0.63079834,-1.9375,1.234375,0.546875
374,1695730433677,-0.4189453,-0.7617798,0.63616943,0.578125,1.328125,0.46875
375,1695730433720,-0.41796875,-0.7637329,0.6317749,0.109375,1.546875,-0.53125
376,1695730433750,-0.421875,-0.75250244,0.62493896,-1.453125,0.875,0.265625
377,1695730433795,-0.42041016,-0.77227783,0.62005615,-1.984375,0.734375,1.71875
378,1695730433825,-0.40771484,-0.75909424,0.65423584,2.484375,2.21875,1.359375
379,1695730433870,-0.40771484,-0.7698364,0.61395264,-1.015625,0.828125,-0.828125
380,1695730433916,-0.39916992,-0.76153564,0.6210327,-0.46875,0.03125,-0.546875
381,1695730433944,-0.41748047,-0.7683716,0.6334839,-1.4375,0.59375,-0.125
382,1695730433991,-0.4128418,-0.77667236,0.6244507,0.265625,0.484375,0.359375
383,1695730434035,-0.41308594,-0.75909424,0.62835693,-2.703125,1.171875,-0.953125
384,1695730434065,-0.4128418,-0.75494385,0.6298218,-1.9375,0.046875,-1.71875
385,1695730434111,-0.43554688,-0.77716064,0.62835693,-0.390625,0.234375,0.4375
386,1695730434140,-0.40234375,-0.75738525,0.64105225,-1.875,1.3125,-1.796875
387,1695730434185,-0.42382812,-0.75787354,0.6286011,-2.0625,2.03125,-2.0
388,1695730434230,-0.43310547,-0.75665283,0.63568115,0.703125,1.96875,-0.609375
389,1695730434262,-0.4177246,-0.7617798,0.6378784,-1.140625,1.359375,-2.390625
390,1695730434304,-0.43017578,-0.75006104,0.6376343,0.765625,1.125,-0.59375
391,1695730434350,-0.42041016,-0.75201416,0.63861084,-2.6875,1.421875,-1.65625
392,1695730434380,-0.42456055,-0.7542114,0.6390991,1.953125,0.609375,-1.1875
393,1695730434425,-0.43359375,-0.76275635,0.63690186,-2.25,2.171875,-1.234375
394,1695730434455,-0.42895508,-0.74786377,0.6310425,-1.6875,1.015625,-0.953125
395,1695730434500,-0.42382812,-0.7451782,0.6408081,-1.921875,1.515625,-0.828125
396,1695730434545,-0.42895508,-0.75567627,0.649353,-0.40625,1.453125,-0.265625
397,1695730434574,-0.42089844,-0.7600708,0.6366577,-0.015625,0.78125,-1.1875
398,1695730434618,-0.42456055,-0.7522583,0.6342163,-1.828125,-0.125,-1.328125
399,1695730434665,-0.4350586,-0.739563,0.65301514,-1.640625,1.0,-1.609375
400,1695730434695,-0.4501953,-0.75323486,0.6403198,-1.578125,0.6875,-0.203125
401,1695730434741,-0.43115234,-0.7373657,0.6449585,-1.484375,1.828125,-0.265625
402,1695730434769,-0.43432617,-0.73394775,0.652771,-0.703125,0.453125,-0.859375
403,1695730434815,-0.45141602,-0.7461548,0.651062,-0.90625,0.203125,-0.265625
404,1695730434861,-0.44311523,-0.73516846,0.63690186,-0.3125,0.75,0.40625
405,1695730434889,-0.42797852,-0.72906494,0.6671753,1.640625,2.96875,0.40625
406,1695730434934,-0.43847656,-0.7432251,0.65252686,0.15625,2.21875,0.46875
407,1695730434979,-0.42871094,-0.75494385,0.62786865,-2.5,2.4375,-0.234375
408,1695730435010,-0.41503906,-0.74591064,0.6522827,0.421875,0.90625,0.21875
409,1695730435055,-0.4387207,-0.7385864,0.6383667,-0.625,0.96875,-0.6875
410,1695730435085,-0.44604492,-0.7346802,0.6400757,-0.015625,0.171875,0.59375
411,1695730435130,-0.42089844,-0.73809814,0.651062,-0.8125,0.5,0.15625
412,1695730435177,-0.42651367,-0.73760986,0.6520386,-0.328125,-0.796875,0.0625
413,1695730435205,-0.4411621,-0.73687744,0.65448,-1.359375,0.46875,-0.84375
414,1695730435250,-0.44213867,-0.73638916,0.65374756,1.359375,-0.40625,1.453125
415,1695730435296,-0.41748047,-0.74957275,0.6520386,0.390625,1.15625,0.46875
416,1695730435326,-0.4194336,-0.7456665,0.6491089,-0.40625,-0.125,-0.578125
417,1695730435370,-0.4477539,-0.7346802,0.64886475,-0.875,0.28125,-1.5625
418,1695730435400,-0.45410156,-0.7503052,0.6478882,1.859375,0.90625,1.53125
419,1695730435446,-0.42797852,-0.736145,0.6532593,0.828125,1.875,-0.140625
420,1695730435489,-0.43115234,-0.7546997,0.63739014,-0.953125,-0.21875,-1.84375
421,1695730435520,-0.4494629,-0.753479,0.6342163,0.515625,-0.59375,-1.59375
422,1695730435566,-0.44750977,-0.7485962,0.6310425,0.53125,-0.859375,-0.34375
423,1695730435610,-0.43432617,-0.73443604,0.63446045,-0.515625,-1.390625,-1.71875
424,1695730435639,-0.43139648,-0.73809814,0.6415405,-0.71875,-1.609375,-1.625
425,1695730435683,-0.4501953,-0.7424927,0.6366577,-0.640625,-1.828125,-1.25
426,1695730435728,-0.49072266,-0.72979736,0.63323975,-0.203125,1.8125,1.0625
427,1695730435758,-0.4880371,-0.74346924,0.6310425,-2.0625,2.75,3.46875
428,1695730435803,-0.44677734,-0.73443604,0.6432495,-1.3125,2.4375,4.25
429,1695730435836,-0.4008789,-0.7210083,0.6947632,6.796875,1.046875,1.640625
430,1695730435880,-0.48364258,-0.75665283,0.6259155,2.609375,-1.015625,1.15625
431,1695730435926,-0.44067383,-0.7739868,0.60614014,11.015625,0.171875,0.921875
432,1695730435954,-0.40185547,-0.7420044,0.6222534,5.8125,-2.4375,-0.953125
433,1695730436000,-0.4399414,-0.7859497,0.58758545,1.28125,0.5625,1.9375
434,1695730436045,-0.43359375,-0.76519775,0.59051514,-1.484375,2.1875,1.21875
435,1695730436073,-0.49243164,-0.8045044,0.5922241,-1.859375,9.921875,3.296875
436,1695730436121,-0.40698242,-0.7888794,0.6286011,2.21875,5.59375,1.28125
437,1695730436149,-0.4177246,-0.73809814,0.60858154,-4.84375,1.640625,0.984375
438,1695730436195,-0.40429688,-0.7769165,0.6605835,12.84375,-5.140625,-0.734375
439,1695730436239,-0.45654297,-0.8074341,0.5951538,5.0625,-4.34375,-1.3125
440,1695730436269,-0.4338379,-0.7756958,0.5363159,3.421875,-3.90625,1.03125
441,1695730436313,-0.43579102,-0.7451782,0.57928467,-3.375,-4.53125,-2.5
442,1695730436362,-0.47045898,-0.77301025,0.6012573,-4.765625,-2.453125,0.6875
443,1695730436391,-0.45874023,-0.7698364,0.59832764,-7.625,-2.015625,0.796875
444,1695730436434,-0.4428711,-0.7659302,0.60076904,-8.625,1.546875,0.03125
445,1695730436465,-0.41723633,-0.75665283,0.6286011,-2.359375,1.9375,-0.640625
446,1695730436510,-0.43847656,-0.7588501,0.6144409,-3.375,2.5,-0.125
447,1695730436555,-0.46313477,-0.7554321,0.59539795,-4.015625,3.34375,0.8125
448,1695730436585,-0.44506836,-0.7710571,0.62542725,-0.859375,3.125,-0.25
449,1695730436630,-0.45874023,-0.7449341,0.62713623,-1.65625,2.8125,-1.234375
450,1695730436706,-0.46166992,-0.7671509,0.60736084,2.453125,1.578125,-2.515625
451,1695730436710,-0.45874023,-0.7620239,0.5993042,-1.90625,0.859375,-3.09375
452,1695730436750,-0.4309082,-0.75128174,0.64178467,0.515625,-0.359375,-2.9375
453,1695730436779,-0.45996094,-0.74664307,0.63031006,-0.59375,-0.4375,-2.984375
454,1695730436825,-0.47802734,-0.75372314,0.6029663,-2.078125,1.5625,-0.859375
455,1695730436869,-0.4169922,-0.72125244,0.62713623,-1.53125,0.703125,-0.59375
456,1695730436900,-0.4638672,-0.74835205,0.6403198,-1.0,0.59375,1.453125
457,1695730436945,-0.45385742,-0.7527466,0.62371826,-1.375,3.078125,1.140625
458,1695730436989,-0.45141602,-0.7444458,0.6244507,0.375,0.59375,0.71875
459,1695730437019,-0.4387207,-0.77056885,0.63201904,2.828125,0.359375,1.578125
460,1695730437065,-0.42626953,-0.7227173,0.62054443,-1.296875,-3.25,-0.671875
461,1695730437095,-0.48364258,-0.7359009,0.6112671,0.046875,-1.6875,-0.65625
462,1695730437139,-0.47338867,-0.7503052,0.61346436,-1.921875,-3.21875,-1.234375
463,1695730437185,-0.49023438,-0.74053955,0.61224365,-2.328125,-0.09375,-0.359375
464,1695730437216,-0.47021484,-0.7329712,0.6066284,-2.296875,1.96875,-1.453125
465,1695730437260,-0.47705078,-0.74102783,0.6300659,-2.625,2.53125,-0.578125
466,1695730437304,-0.46142578,-0.75079346,0.63323975,-1.0,3.203125,-0.5
467,1695730437335,-0.4309082,-0.74053955,0.6415405,2.265625,3.609375,-0.6875
468,1695730437381,-0.44848633,-0.74102783,0.61639404,-1.5625,2.234375,-1.15625
469,1695730437411,-0.48291016,-0.7354126,0.62615967,-2.375,1.84375,-1.671875
470,1695730437454,-0.48583984,-0.7485962,0.6268921,0.15625,1.765625,0.484375
471,1695730437499,-0.46289062,-0.73809814,0.61932373,0.609375,1.65625,-0.296875
472,1695730437529,-0.46069336,-0.72369385,0.6256714,-3.609375,1.0625,-1.046875
473,1695730437576,-0.46362305,-0.7529907,0.6366577,-0.828125,-0.203125,0.921875
474,1695730437619,-0.44213867,-0.7329712,0.64593506,-1.328125,0.390625,1.171875
475,1695730437650,-0.46484375,-0.7246704,0.63275146,-1.40625,0.828125,-0.25
476,1695730437694,-0.4741211,-0.72442627,0.6412964,-1.609375,0.859375,0.609375
477,1695730437725,-0.4555664,-0.7317505,0.6503296,-0.9375,-0.0625,0.8125
478,1695730437770,-0.4609375,-0.72613525,0.64886475,-1.015625,1.109375,-0.203125
479,1695730437814,-0.4765625,-0.7329712,0.63201904,0.34375,0.421875,-0.78125
480,1695730437845,-0.46875,-0.7190552,0.63568115,-1.34375,1.0625,-0.296875
481,1695730437890,-0.47973633,-0.7385864,0.6322632,-1.484375,1.8125,0.28125
482,1695730437935,-0.4621582,-0.7300415,0.6461792,-0.15625,2.421875,-0.59375
483,1695730437968,-0.46411133,-0.7402954,0.64349365,-0.859375,2.359375,-0.484375
484,1695730438010,-0.46142578,-0.7217407,0.6395874,2.171875,0.984375,0.546875
485,1695730438056,-0.4663086,-0.7263794,0.64764404,1.796875,1.75,0.40625
486,1695730438083,-0.45922852,-0.7420044,0.6244507,1.25,0.3125,-0.078125
487,1695730438129,-0.45263672,-0.7136841,0.64276123,2.9375,0.109375,-0.671875
488,1695730438160,-0.48242188,-0.7485962,0.6286011,1.5625,1.078125,0.921875
489,1695730438203,-0.4633789,-0.74420166,0.63275146,1.953125,1.609375,1.75
490,1695730438249,-0.46313477,-0.7324829,0.6190796,0.84375,1.6875,0.890625
491,1695730438278,-0.4633789,-0.73883057,0.62786865,4.15625,2.734375,2.171875
492,1695730438323,-0.4621582,-0.7617798,0.6071167,3.0,1.40625,2.34375
493,1695730438353,-0.44262695,-0.7588501,0.6317749,4.828125,2.609375,1.453125
494,1695730438399,-0.46435547,-0.7576294,0.6102905,1.3125,1.328125,0.515625
495,1695730438444,-0.46020508,-0.74591064,0.607605,2.5,2.265625,1.046875
496,1695730438474,-0.4506836,-0.75323486,0.61517334,4.53125,1.3125,1.78125
497,1695730438522,-0.4501953,-0.76763916,0.61932373,1.984375,1.1875,1.5625
498,1695730438564,-0.4567871,-0.75445557,0.60321045,1.859375,1.953125,1.640625
499,1695730438597,-0.44360352,-0.7671509,0.5961304,1.5625,2.484375,1.875
500,1695730438639,-0.43139648,-0.7739868,0.60272217,2.5,1.671875,1.875
501,1695730438669,-0.43115234,-0.7822876,0.60614014,1.6875,1.796875,1.6875
502,1695730438714,-0.44262695,-0.77008057,0.59002686,0.0625,1.5625,1.96875
503,1695730438760,-0.42089844,-0.77911377,0.59906006,2.203125,1.328125,2.234375
504,1695730438789,-0.42993164,-0.7859497,0.5932007,1.84375,1.265625,1.0625
505,1695730438835,-0.43188477,-0.7793579,0.59198,-0.0625,1.140625,0.25
506,1695730438880,-0.4267578,-0.77838135,0.60736084,2.78125,0.71875,0.453125
507,1695730438909,-0.42626953,-0.7827759,0.5861206,0.359375,0.203125,1.140625
508,1695730438954,-0.43530273,-0.78009033,0.58807373,0.5625,1.09375,0.171875
509,1695730438985,-0.43652344,-0.770813,0.586853,-2.484375,0.546875,0.0
510,1695730439045,-0.4267578,-0.7925415,0.59124756,1.84375,0.5,1.03125
511,1695730439077,-0.41748047,-0.77911377,0.5883179,-1.40625,0.421875,-0.03125
512,1695730439104,-0.42822266,-0.7842407,0.5922241,-0.015625,0.453125,-0.015625
513,1695730439150,-0.43041992,-0.78863525,0.5812378,-0.71875,0.1875,-0.09375
514,1695730439195,-0.43188477,-0.77593994,0.5910034,-0.609375,0.875,0.375
515,1695730439225,-0.43139648,-0.7839966,0.5975952,1.046875,0.96875,0.421875
516,1695730439269,-0.42993164,-0.7815552,0.5853882,-2.0625,0.375,0.078125
517,1695730439315,-0.4362793,-0.78497314,0.58880615,-0.859375,0.828125,-0.421875
518,1695730439343,-0.44628906,-0.7866821,0.57806396,-0.46875,0.640625,-0.453125
519,1695730439391,-0.42407227,-0.77838135,0.59295654,0.53125,0.203125,-0.578125
520,1695730439436,-0.43823242,-0.7827759,0.58880615,-1.921875,0.484375,-0.578125
521,1695730439465,-0.4423828,-0.7774048,0.5985718,-0.34375,0.9375,0.625
522,1695730439509,-0.42919922,-0.7896118,0.5709839,-2.21875,0.265625,-0.5
523,1695730439538,-0.4165039,-0.7727661,0.5993042,1.109375,1.71875,-0.359375
524,1695730439584,-0.43774414,-0.7749634,0.5956421,-0.53125,0.328125,-0.21875
525,1695730439629,-0.43164062,-0.7913208,0.5812378,-1.625,1.140625,0.25
526,1695730439659,-0.4267578,-0.7788696,0.5907593,-0.6875,1.28125,-0.046875
527,1695730439705,-0.44213867,-0.76348877,0.59051514,-0.734375,0.859375,0.015625
528,1695730439736,-0.4375,-0.79156494,0.5775757,-0.5,0.09375,0.890625
529,1695730439779,-0.4152832,-0.77911377,0.6029663,-0.34375,0.609375,0.5
530,1695730439825,-0.44018555,-0.7727661,0.59002686,-0.734375,1.328125,0.234375
531,1695730439854,-0.4333496,-0.78912354,0.5878296,-1.046875,0.890625,0.484375
532,1695730439900,-0.43188477,-0.7805786,0.5968628,-0.3125,0.75,1.21875
533,1695730439945,-0.43188477,-0.7839966,0.5932007,-1.21875,0.796875,0.1875
534,1695730439975,-0.43579102,-0.7918091,0.60369873,0.84375,0.765625,0.234375
535,1695730440022,-0.4255371,-0.77471924,0.5824585,-0.515625,0.28125,0.34375
536,1695730440095,-0.4165039,-0.7839966,0.59954834,-1.3125,0.25,0.5
537,1695730440097,-0.43847656,-0.78326416,0.58929443,-1.90625,0.40625,0.078125
538,1695730440139,-0.43969727,-0.78302,0.5836792,-1.21875,0.359375,0.609375
539,1695730440171,-0.43041992,-0.76812744,0.59954834,0.578125,1.5,1.609375
540,1695730440215,-0.42407227,-0.7888794,0.58392334,-2.0625,0.390625,0.296875
541,1695730440259,-0.4177246,-0.7944946,0.60076904,-2.15625,0.078125,-0.78125
542,1695730440289,-0.44067383,-0.7752075,0.5907593,-1.140625,-0.546875,-0.734375
543,1695730440335,-0.44555664,-0.7678833,0.60150146,-0.6875,0.265625,0.125
544,1695730440365,-0.4338379,-0.77008057,0.59002686,-4.625,0.765625,0.765625
545,1695730440410,-0.43579102,-0.77423096,0.6010132,-3.171875,0.3125,0.484375
546,1695730440457,-0.44628906,-0.76812744,0.62127686,-0.046875,-0.46875,0.625
547,1695730440487,-0.44360352,-0.7600708,0.59198,-3.5,-0.671875,0.0
548,1695730440530,-0.4338379,-0.767395,0.6063843,-2.8125,0.921875,0.78125
549,1695730440576,-0.42797852,-0.77227783,0.6090698,-1.015625,-0.078125,1.046875
550,1695730440606,-0.43359375,-0.75860596,0.6173706,-0.59375,1.03125,1.28125
551,1695730440649,-0.4375,-0.772522,0.5907593,-1.65625,2.421875,1.234375
552,1695730440680,-0.41333008,-0.76397705,0.6239624,2.0625,1.4375,2.375
553,1695730440726,-0.42651367,-0.7654419,0.6102905,-1.4375,1.328125,1.4375
554,1695730440769,-0.43798828,-0.7883911,0.60198975,0.234375,2.453125,1.40625
555,1695730440799,-0.42016602,-0.77789307,0.6051636,0.765625,1.375,0.453125
556,1695730440845,-0.43041992,-0.7732544,0.60565186,-2.03125,1.46875,1.640625
557,1695730440889,-0.41625977,-0.77667236,0.6063843,1.9375,1.015625,1.046875
558,1695730440920,-0.42138672,-0.78985596,0.605896,-0.9375,-0.078125,-0.703125
559,1695730440965,-0.43554688,-0.78692627,0.590271,-0.109375,0.09375,0.0625
560,1695730440994,-0.42407227,-0.7842407,0.6071167,2.984375,0.453125,2.125
561,1695730441040,-0.40698242,-0.77056885,0.6107788,1.375,-0.4375,2.203125
562,1695730441087,-0.41088867,-0.7798462,0.6071167,-2.90625,1.125,0.53125
563,1695730441115,-0.42358398,-0.7756958,0.60321045,-2.734375,0.5625,-0.71875
564,1695730441160,-0.42407227,-0.7752075,0.60565186,-1.640625,0.03125,0.15625
565,1695730441207,-0.41845703,-0.76763916,0.62054443,-0.640625,0.8125,-0.515625
566,1695730441235,-0.42871094,-0.77301025,0.6078491,-0.796875,1.34375,-0.421875
567,1695730441280,-0.41748047,-0.7817993,0.60809326,-1.390625,1.109375,-0.34375
568,1695730441310,-0.4206543,-0.7822876,0.6117554,-0.28125,0.53125,-0.671875
569,1695730441357,-0.42993164,-0.7703247,0.6132202,0.40625,1.5,-0.25
570,1695730441398,-0.42211914,-0.7774048,0.60565186,-1.6875,1.34375,0.4375
571,1695730441428,-0.4248047,-0.77056885,0.6078491,-1.578125,0.640625,-0.0625
572,1695730441473,-0.42016602,-0.7683716,0.6161499,-0.953125,1.25,0.046875
573,1695730441519,-0.41552734,-0.7703247,0.6137085,-1.015625,0.234375,-0.75
574,1695730441550,-0.42578125,-0.7781372,0.60565186,-1.90625,0.34375,-0.234375
575,1695730441596,-0.42016602,-0.7659302,0.6222534,-1.03125,0.703125,0.09375
576,1695730441624,-0.42041016,-0.7625122,0.6100464,-1.578125,0.671875,-0.96875
577,1695730441669,-0.42700195,-0.77349854,0.6222534,-1.234375,1.234375,-0.734375
578,1695730441716,-0.43432617,-0.7698364,0.6112671,-0.796875,1.21875,-0.109375
579,1695730441745,-0.42236328,-0.76446533,0.62493896,0.4375,0.78125,-0.453125
580,1695730441790,-0.4333496,-0.76275635,0.61834717,-1.390625,0.421875,-0.671875
581,1695730441850,-0.4338379,-0.7798462,0.61639404,-0.109375,0.359375,-0.6875
582,1695730441864,-0.4272461,-0.7666626,0.61712646,0.890625,1.078125,-0.40625
583,1695730441910,-0.42260742,-0.7576294,0.6173706,0.296875,0.9375,-0.171875
584,1695730441939,-0.4411621,-0.75787354,0.62005615,1.0,1.53125,0.75
585,1695730441985,-0.43164062,-0.77349854,0.6129761,0.328125,2.359375,0.75
586,1695730442030,-0.41503906,-0.77593994,0.6190796,4.09375,2.640625,0.984375
587,1695730442059,-0.42041016,-0.76934814,0.6051636,3.03125,1.890625,0.84375
588,1695730442105,-0.42822266,-0.7803345,0.6071167,3.125,1.859375,1.0
589,1695730442149,-0.42529297,-0.7744751,0.6046753,3.390625,2.9375,1.078125
590,1695730442180,-0.41601562,-0.78497314,0.6005249,3.84375,2.25,1.484375
591,1695730442226,-0.41357422,-0.78790283,0.60076904,2.25,2.34375,1.765625
592,1695730442254,-0.40722656,-0.7822876,0.5951538,0.984375,1.609375,0.875
593,1695730442299,-0.40844727,-0.7901001,0.5844116,1.265625,1.71875,0.34375
594,1695730442345,-0.4091797,-0.79034424,0.5895386,1.3125,1.421875,1.484375
595,1695730442374,-0.4038086,-0.7883911,0.59832764,2.125,1.71875,1.046875
596,1695730442418,-0.42211914,-0.7979126,0.5795288,-0.203125,1.09375,0.375
597,1695730442465,-0.42016602,-0.78863525,0.6000366,3.03125,2.515625,0.921875
598,1695730442494,-0.4020996,-0.8057251,0.5946655,1.0,2.234375,1.953125
599,1695730442540,-0.3972168,-0.800354,0.5883179,1.484375,2.8125,0.765625
600,1695730442571,-0.38891602,-0.8010864,0.5841675,1.140625,1.46875,0.0625
601,1695730442617,-0.3972168,-0.7962036,0.57440186,2.390625,1.625,1.25
602,1695730442660,-0.39208984,-0.81451416,0.57684326,0.484375,1.671875,0.6875
603,1695730442689,-0.40014648,-0.79693604,0.58343506,0.0,1.65625,0.828125
604,1695730442735,-0.4020996,-0.8064575,0.57366943,-0.453125,1.1875,1.078125
605,1695730442781,-0.39233398,-0.8184204,0.58636475,-0.390625,1.109375,0.890625
606,1695730442810,-0.38964844,-0.7996216,0.57318115,-0.5,0.484375,0.0625
607,1695730442855,-0.39257812,-0.80255127,0.5819702,-0.859375,0.03125,0.328125
608,1695730442885,-0.39770508,-0.80059814,0.5853882,-1.28125,0.328125,-0.015625
609,1695730442930,-0.39916992,-0.80255127,0.586853,-0.53125,0.765625,0.328125
610,1695730442975,-0.40625,-0.8027954,0.5770874,-0.625,1.203125,0.359375
611,1695730443011,-0.39160156,-0.7949829,0.57977295,-0.609375,0.984375,0.15625
612,1695730443049,-0.38745117,-0.8123169,0.5819702,0.078125,0.953125,0.359375
613,1695730443095,-0.39575195,-0.80181885,0.5910034,0.0,0.59375,0.421875
614,1695730443128,-0.39160156,-0.8093872,0.5758667,0.140625,0.75,-0.34375
615,1695730443170,-0.39013672,-0.80181885,0.5758667,-2.546875,0.359375,-0.90625
616,1695730443216,-0.40844727,-0.7984009,0.5910034,-1.015625,0.09375,-0.1875
617,1695730443247,-0.40429688,-0.80426025,0.5765991,-1.84375,0.03125,0.1875
618,1695730443290,-0.39624023,-0.79644775,0.5795288,-2.890625,0.265625,-0.28125
619,1695730443318,-0.39672852,-0.79815674,0.5866089,-2.25,-0.453125,-0.671875
620,1695730443365,-0.40039062,-0.79644775,0.5910034,0.890625,0.34375,0.0625
621,1695730443410,-0.40454102,-0.7932739,0.58758545,-1.734375,0.5,0.75
622,1695730443440,-0.3996582,-0.7888794,0.59002686,-3.0,0.359375,0.078125
623,1695730443487,-0.40161133,-0.80133057,0.59832764,-1.53125,0.78125,-0.34375
624,1695730443531,-0.40405273,-0.80059814,0.5973511,-0.375,0.8125,0.453125
625,1695730443560,-0.40356445,-0.7888794,0.59295654,0.296875,0.484375,0.25
626,1695730443605,-0.39038086,-0.79473877,0.60321045,0.671875,0.65625,0.0625
627,1695730443639,-0.41308594,-0.7905884,0.5807495,-3.046875,1.15625,-0.65625
628,1695730443680,-0.40722656,-0.80596924,0.59198,-0.984375,0.84375,0.375
629,1695730443731,-0.3881836,-0.7835083,0.5927124,-1.3125,0.890625,-0.46875
630,1695730443752,-0.41503906,-0.7932739,0.59198,-0.609375,1.390625,0.125
631,1695730443799,-0.39868164,-0.8062134,0.5914917,-2.484375,0.46875,-0.46875
632,1695730443845,-0.39624023,-0.78790283,0.60980225,-0.65625,0.4375,0.25
633,1695730443877,-0.3947754,-0.7888794,0.60491943,-0.15625,0.578125,-0.296875
634,1695730443920,-0.40625,-0.78985596,0.58929443,-2.203125,0.125,-1.96875
635,1695730443951,-0.41992188,-0.78741455,0.6010132,-2.1875,0.421875,-1.0
636,1695730444007,-0.41088867,-0.7893677,0.6100464,-1.390625,0.484375,0.484375
637,1695730444040,-0.41674805,-0.7776489,0.6083374,-1.40625,0.8125,-0.703125
638,1695730444069,-0.41870117,-0.7793579,0.60321045,-2.984375,0.984375,-0.625
639,1695730444115,-0.40771484,-0.7852173,0.604187,-0.53125,0.34375,-0.4375
640,1695730444191,-0.4152832,-0.79156494,0.6112671,-1.15625,0.625,-0.140625
641,1695730444193,-0.41479492,-0.7654419,0.60198975,-2.8125,0.6875,-2.0
642,1695730444234,-0.41796875,-0.7749634,0.60565186,-2.03125,1.328125,-0.421875
643,1695730444265,-0.40161133,-0.77789307,0.6149292,-0.875,0.734375,0.15625
644,1695730444311,-0.40942383,-0.76519775,0.6137085,-0.953125,0.5625,-0.453125
645,1695730444356,-0.41357422,-0.77667236,0.6234741,-0.59375,0.984375,-0.421875
646,1695730444386,-0.4177246,-0.77716064,0.61883545,-1.078125,0.671875,-0.15625
647,1695730444430,-0.42358398,-0.77545166,0.6112671,-0.546875,0.90625,-0.21875
648,1695730444477,-0.4248047,-0.769104,0.6112671,-0.859375,1.21875,-0.046875
649,1695730444505,-0.4140625,-0.77178955,0.61834717,-2.875,-0.1875,-0.15625
650,1695730444550,-0.4272461,-0.7727661,0.6166382,-2.234375,0.578125,0.03125
651,1695730444596,-0.4230957,-0.7661743,0.607605,-0.828125,1.21875,-0.46875
652,1695730444625,-0.41503906,-0.76763916,0.6305542,-0.125,1.625,-0.0625
653,1695730444685,-0.40576172,-0.77667236,0.6012573,-1.5625,0.109375,-0.28125
654,1695730444699,-0.41455078,-0.7698364,0.61883545,-3.234375,0.390625,-1.5625
655,1695730444745,-0.42358398,-0.767395,0.62835693,-0.484375,0.96875,-1.203125
656,1695730444789,-0.43066406,-0.75445557,0.6149292,-0.453125,0.671875,-0.734375
657,1695730444835,-0.42089844,-0.7576294,0.6288452,-2.390625,0.734375,-0.828125
658,1695730444867,-0.4169922,-0.7608032,0.6264038,-0.84375,0.15625,-0.5
659,1695730444895,-0.44970703,-0.75982666,0.62493896,-0.546875,1.140625,-0.453125
660,1695730444940,-0.42700195,-0.7490845,0.6268921,-0.234375,1.1875,-0.625
661,1695730444985,-0.43188477,-0.75177,0.62615967,-1.0,1.578125,-0.125
662,1695730445016,-0.4362793,-0.77349854,0.62542725,-0.5,1.953125,0.328125
663,1695730445059,-0.4375,-0.7620239,0.6195679,-1.109375,1.40625,0.078125
664,1695730445105,-0.4243164,-0.7542114,0.633728,-0.734375,1.671875,-0.328125
665,1695730445134,-0.4338379,-0.75909424,0.619812,-1.984375,1.1875,-0.796875
666,1695730445179,-0.4177246,-0.77056885,0.6342163,-1.234375,1.046875,-0.453125
667,1695730445225,-0.42358398,-0.75909424,0.62786865,-0.84375,0.9375,-0.984375
668,1695730445256,-0.42919922,-0.76568604,0.62371826,0.53125,0.8125,-0.1875
669,1695730445299,-0.41479492,-0.75128174,0.6298218,-0.640625,1.109375,-0.28125
670,1695730445329,-0.42578125,-0.7608032,0.6259155,-1.359375,0.375,-1.171875
671,1695730445374,-0.4272461,-0.7612915,0.6342163,0.4375,0.671875,-0.359375
672,1695730445420,-0.42700195,-0.75177,0.6305542,0.8125,0.59375,-1.359375
673,1695730445465,-0.45654297,-0.73760986,0.6256714,-2.703125,0.96875,-0.515625
674,1695730445496,-0.44677734,-0.75250244,0.64276123,-2.484375,0.984375,0.21875
675,1695730445525,-0.4453125,-0.75079346,0.64715576,-0.296875,1.5,0.140625
676,1695730445569,-0.44604492,-0.7449341,0.6347046,-0.765625,1.671875,-0.859375
677,1695730445614,-0.42919922,-0.75250244,0.62005615,-2.546875,1.078125,-1.25
678,1695730445644,-0.43139648,-0.7485962,0.6310425,-1.75,0.953125,-0.203125
679,1695730445689,-0.41918945,-0.7529907,0.6376343,-1.75,1.28125,-0.828125
680,1695730445733,-0.43847656,-0.7359009,0.63397217,-0.75,1.125,-0.15625
681,1695730445763,-0.42285156,-0.7503052,0.64105225,-1.296875,1.34375,-0.1875
682,1695730445810,-0.421875,-0.7510376,0.63861084,-1.1875,0.59375,-0.234375
683,1695730445840,-0.43725586,-0.7390747,0.6442261,-0.453125,0.359375,-0.53125
684,1695730445886,-0.4284668,-0.74591064,0.6400757,-0.015625,-0.03125,-0.703125
685,1695730445930,-0.4489746,-0.737854,0.64471436,-1.359375,0.140625,-1.484375
686,1695730445960,-0.4567871,-0.73394775,0.6557007,-0.515625,0.125,-0.6875
687,1695730446005,-0.46777344,-0.72540283,0.64227295,-1.40625,1.5625,0.484375
688,1695730446050,-0.4506836,-0.71881104,0.65496826,-0.90625,1.4375,0.453125
689,1695730446080,-0.45629883,-0.7427368,0.6461792,0.171875,0.65625,1.328125
690,1695730446125,-0.4333496,-0.7366333,0.6557007,0.984375,1.125,-0.3125
691,1695730446155,-0.43945312,-0.74713135,0.62957764,3.265625,-0.125,-0.25
692,1695730446209,-0.43676758,-0.7349243,0.6210327,1.109375,0.8125,1.234375
693,1695730446251,-0.43701172,-0.74591064,0.64178467,1.46875,0.984375,1.8125
694,1695730446273,-0.43652344,-0.7715454,0.63934326,3.515625,3.328125,2.46875
695,1695730446319,-0.41503906,-0.76519775,0.62420654,3.546875,3.703125,0.078125
696,1695730446366,-0.41625977,-0.7546997,0.6178589,2.8125,1.375,0.328125
697,1695730446395,-0.42993164,-0.7576294,0.6317749,4.375,0.421875,1.8125
698,1695730446441,-0.4333496,-0.7654419,0.6195679,3.75,0.796875,2.21875
699,1695730446471,-0.45141602,-0.75177,0.6168823,4.734375,5.28125,2.640625
700,1695730446513,-0.43237305,-0.7764282,0.6034546,1.546875,1.640625,4.28125
701,1695730446558,-0.41552734,-0.7827759,0.62615967,-0.875,2.640625,2.34375
702,1695730446588,-0.421875,-0.784729,0.61517334,1.453125,1.109375,1.21875
703,1695730446633,-0.4128418,-0.76226807,0.6088257,0.375,-0.3125,0.96875
704,1695730446679,-0.40429688,-0.7883911,0.6022339,-0.984375,0.078125,1.09375
705,1695730446717,-0.39379883,-0.77911377,0.6173706,1.578125,0.765625,1.171875
706,1695730446753,-0.40405273,-0.7822876,0.6054077,0.109375,1.078125,0.265625
707,1695730446802,-0.4008789,-0.7781372,0.60150146,-1.234375,0.65625,-0.5
708,1695730446831,-0.40576172,-0.78302,0.60443115,-1.453125,-1.234375,-0.234375
709,1695730446879,-0.41088867,-0.7661743,0.6173706,-0.421875,-0.515625,0.125
710,1695730446904,-0.41308594,-0.784729,0.59710693,-2.703125,-2.078125,-0.671875
711,1695730446949,-0.43139648,-0.77423096,0.605896,-1.453125,-0.40625,-0.40625
712,1695730446995,-0.4309082,-0.770813,0.6144409,-0.265625,0.328125,0.015625
713,1695730447025,-0.4260254,-0.7595825,0.62176514,0.21875,0.921875,0.25
714,1695730447069,-0.42993164,-0.77471924,0.6178589,-1.171875,0.53125,-0.796875
715,1695730447115,-0.4272461,-0.77593994,0.59783936,-0.9375,0.21875,-0.828125
716,1695730447145,-0.42651367,-0.7683716,0.6051636,1.40625,0.609375,0.59375
717,1695730447191,-0.41723633,-0.7749634,0.60272217,0.078125,1.1875,0.390625
718,1695730447219,-0.4194336,-0.7876587,0.60150146,-0.140625,1.984375,1.484375
719,1695730447265,-0.41137695,-0.7776489,0.6107788,-0.65625,0.921875,1.3125
720,1695730447310,-0.42260742,-0.78570557,0.60858154,0.484375,1.0,1.0
721,1695730447341,-0.4165039,-0.79034424,0.6005249,0.890625,1.625,-0.03125
722,1695730447385,-0.39770508,-0.77789307,0.61102295,0.25,0.671875,-1.484375
723,1695730447461,-0.42358398,-0.7876587,0.604187,-1.6875,1.15625,-0.640625
724,1695730447463,-0.4248047,-0.7695923,0.5907593,-2.015625,0.84375,-0.109375
725,1695730447505,-0.4086914,-0.7630005,0.6117554,-0.921875,-0.703125,0.28125
726,1695730447534,-0.43115234,-0.7715454,0.6137085,-3.421875,-1.40625,-0.375
727,1695730447580,-0.43701172,-0.7632446,0.6161499,-1.203125,-0.484375,-0.328125
728,1695730447625,-0.42773438,-0.75128174,0.5993042,-3.546875,-0.5625,-0.546875
729,1695730447655,-0.42797852,-0.77423096,0.6210327,-3.28125,0.875,-0.796875
730,1695730447699,-0.42993164,-0.77301025,0.62298584,-2.46875,1.28125,-0.09375
731,1695730447745,-0.41357422,-0.75128174,0.6251831,-2.0,1.625,-0.609375
732,1695730447775,-0.41992188,-0.7617798,0.62713623,-2.40625,1.96875,-1.15625
733,1695730447820,-0.43359375,-0.7649536,0.6195679,-0.4375,0.5625,-1.21875
734,1695730447849,-0.44018555,-0.7703247,0.6154175,-1.09375,1.03125,-0.109375
735,1695730447895,-0.4248047,-0.76153564,0.6107788,-3.359375,0.28125,-1.765625
736,1695730447940,-0.4338379,-0.756897,0.6264038,-1.109375,0.796875,-1.265625
737,1695730447969,-0.43920898,-0.7666626,0.63079834,-1.1875,0.3125,-1.109375
738,1695730448014,-0.44140625,-0.76812744,0.6259155,-3.109375,0.53125,-0.921875
739,1695730448059,-0.4338379,-0.7420044,0.6383667,-1.796875,1.15625,-1.796875
740,1695730448089,-0.44384766,-0.7407837,0.63983154,-1.4375,1.84375,0.21875
741,1695730448135,-0.44189453,-0.7473755,0.6415405,-1.515625,2.96875,-1.359375
742,1695730448165,-0.42382812,-0.755188,0.6481323,2.234375,3.59375,-0.640625
743,1695730448209,-0.43774414,-0.7546997,0.6312866,-1.6875,2.609375,-0.578125
744,1695730448269,-0.44067383,-0.75567627,0.6469116,0.78125,3.796875,-0.890625
745,1695730448284,-0.44628906,-0.7461548,0.6220093,-1.734375,1.46875,-1.796875
746,1695730448329,-0.43554688,-0.7398071,0.6456909,-2.125,0.453125,-1.875
747,1695730448374,-0.44873047,-0.7390747,0.64398193,-0.59375,-0.390625,-1.0
748,1695730448404,-0.44921875,-0.7268677,0.6317749,-3.0625,-1.296875,-1.203125
749,1695730448449,-0.43945312,-0.7383423,0.64349365,-2.859375,-0.6875,0.125
750,1695730448479,-0.43774414,-0.741272,0.65057373,-1.953125,0.625,-0.109375
751,1695730448539,-0.44921875,-0.7346802,0.66326904,-0.296875,0.984375,0.609375
752,1695730448569,-0.42163086,-0.7276001,0.64959717,-0.703125,1.65625,-0.109375
753,1695730448599,-0.44702148,-0.7359009,0.65423584,0.484375,2.40625,0.515625
754,1695730448645,-0.4597168,-0.73150635,0.652771,2.890625,2.734375,0.484375
755,1695730448691,-0.45166016,-0.7383423,0.6378784,5.609375,1.625,0.90625
756,1695730448719,-0.43701172,-0.74786377,0.6364136,5.75,2.21875,1.203125
757,1695730448764,-0.44384766,-0.7498169,0.62127686,4.8125,1.6875,0.921875
758,1695730448795,-0.4338379,-0.76348877,0.61834717,3.796875,1.09375,0.0
759,1695730448840,-0.44848633,-0.76153564,0.62005615,3.578125,1.046875,1.359375
