,timestamp,accel_x,accel_y,accel_z,gyro_x,gyro_y,gyro_z
0,1695730219398,-0.2980957,-0.9656372,0.20819092,5.53125,0.03125,-1.375
1,1695730219442,-0.30688477,-0.9956665,0.2008667,0.59375,2.03125,2.0625
2,1695730219487,-0.31176758,-0.9517212,0.19671631,-0.0625,1.625,2.578125
3,1695730219517,-0.30566406,-0.9595337,0.20452881,0.453125,0.1875,0.46875
4,1695730219563,-0.2993164,-0.97979736,0.20159912,3.828125,0.734375,-0.34375
5,1695730219592,-0.2878418,-0.96881104,0.168396,-3.0625,-0.234375,-0.28125
6,1695730219638,-0.2705078,-0.97076416,0.15179443,-0.265625,-2.046875,1.796875
7,1695730219685,-0.31445312,-1.0027466,0.23577881,-23.8125,-7.140625,-7.4375
8,1695730219712,-0.33276367,-0.92803955,0.26361084,-25.53125,2.4375,-6.078125
9,1695730219759,-0.2578125,-1.0120239,0.28997803,-14.8125,0.421875,-7.734375
10,1695730219803,-0.3203125,-0.88360596,0.2592163,-14.734375,1.5625,-7.640625
11,1695730219833,-0.2668457,-0.91241455,0.32073975,-2.125,0.296875,-6.953125
12,1695730219878,-0.3503418,-0.9612427,0.27313232,-19.609375,-1.984375,-7.546875
13,1695730219908,-0.37768555,-0.9319458,0.2855835,-4.625,2.65625,-11.046875
14,1695730219954,-0.26782227,-0.8699341,0.29681396,-0.953125,3.0,-20.546875
15,1695730219998,-0.4248047,-0.84381104,0.33929443,-5.171875,-15.46875,-0.4375
16,1695730220043,-0.578125,-0.9138794,0.45306396,-22.78125,-9.921875,7.390625
17,1695730220072,-0.2849121,-1.1443481,0.4179077,-14.859375,-0.625,-5.84375
18,1695730220118,-0.42382812,-0.84991455,0.41107178,10.84375,-4.40625,4.0
19,1695730220149,-0.43774414,-0.7698364,0.37249756,30.015625,4.640625,17.015625
20,1695730220193,-0.60058594,-0.8508911,0.39031982,0.46875,-9.71875,2.8125
21,1695730220239,-0.41552734,-0.9522095,0.36712646,-16.359375,0.234375,-9.125
22,1695730220269,-0.40649414,-0.9859009,0.29364014,-4.0625,10.1875,-0.171875
23,1695730220315,-0.3371582,-0.8713989,0.3222046,37.375,21.125,5.390625
24,1695730220344,-0.41845703,-0.93218994,0.28729248,20.234375,-3.203125,12.28125
25,1695730220389,-0.31933594,-0.9224243,0.24920654,-7.4375,-4.046875,8.265625
26,1695730220435,-0.22314453,-0.989563,0.21453857,-13.734375,2.203125,3.921875
27,1695730220466,-0.3322754,-0.87506104,0.20916748,14.671875,5.09375,3.59375
28,1695730220509,-0.3947754,-1.0151978,0.19281006,-3.078125,-2.890625,8.078125
29,1695730220554,-0.35839844,-1.0247192,0.30511475,-5.875,-8.03125,-0.796875
30,1695730220585,-0.29711914,-0.9324341,0.2694702,-6.359375,5.890625,-1.953125
31,1695730220629,-0.33032227,-0.95147705,0.2633667,-1.28125,4.390625,-2.875
32,1695730220658,-0.29882812,-0.9187622,0.3312378,-0.46875,1.15625,-8.3125
33,1695730220705,-0.35229492,-1.0083618,0.38275146,18.96875,0.125,5.21875
34,1695730220749,-0.3408203,-0.8897095,0.31878662,-23.546875,-0.21875,4.515625
35,1695730220778,-0.28808594,-0.9258423,0.28533936,-5.40625,5.359375,1.734375
36,1695730220826,-0.31811523,-0.9631958,0.29364014,8.40625,18.328125,-4.5625
37,1695730220868,-0.43041992,-0.9121704,0.40740967,14.765625,-4.828125,4.109375
38,1695730220898,-0.29907227,-0.9612427,0.2880249,-18.546875,1.03125,5.421875
39,1695730220945,-0.27954102,-0.9019165,0.26312256,-11.5,3.765625,-2.703125
40,1695730220974,-0.31811523,-0.99542236,0.32269287,-8.421875,12.484375,-2.984375
41,1695730221019,-0.24560547,-0.9470825,0.42425537,22.71875,11.03125,0.53125
42,1695730221065,-0.29370117,-0.94000244,0.28338623,9.0625,-3.21875,-0.265625
43,1695730221094,-0.21044922,-0.8933716,0.17156982,-28.1875,3.46875,-1.296875
44,1695730221139,-0.25268555,-0.9788208,0.33563232,-1.65625,-4.703125,-0.0625
45,1695730221219,-0.4892578,-0.9331665,0.3883667,8.359375,13.203125,5.453125
46,1695730221222,-0.45654297,-0.72052,0.4862671,43.03125,33.8125,11.015625
47,1695730221259,-0.36035156,-0.9536743,0.3168335,57.65625,44.25,32.71875
48,1695730221289,-0.09838867,-1.0652466,-0.12261963,-32.9375,9.078125,6.65625
49,1695730221335,0.14038086,-1.0435181,0.16888428,8.625,-30.1875,-26.0
50,1695730221379,-0.0847168,-1.3462524,0.32733154,56.21875,-22.234375,7.6875
51,1695730221411,-0.61450195,-0.83062744,-0.04058838,-95.734375,-27.703125,-4.34375
52,1695730221452,-0.37841797,-0.61724854,0.42962646,-39.703125,-28.15625,-34.21875
53,1695730221499,-0.39868164,-0.7788696,0.46600342,-69.515625,-11.140625,-32.9375
54,1695730221528,-0.12573242,-0.9487915,0.48358154,-16.03125,4.140625,-8.703125
55,1695730221574,-0.47924805,-1.0291138,0.61932373,-13.25,-16.15625,-15.640625
56,1695730221604,-0.4975586,-0.90045166,0.35101318,-7.0625,-10.96875,-9.75
57,1695730221651,-0.46191406,-0.66412354,0.3529663,5.34375,-3.109375,-5.546875
58,1695730221695,-0.5461426,-0.72662354,0.35101318,19.828125,8.21875,-0.03125
59,1695730221725,-0.5908203,-0.99102783,0.4862671,-13.5,-9.421875,4.484375
60,1695730221770,-0.26635742,-0.8726196,0.43011475,-25.3125,4.125,-8.328125
61,1695730221814,-0.41333008,-0.7774048,0.4093628,5.546875,-2.890625,14.046875
62,1695730221844,-0.37524414,-0.8965454,0.34051514,6.890625,-1.96875,-0.375
63,1695730221890,-0.51171875,-0.9729614,0.57073975,25.546875,-7.84375,13.875
64,1695730221919,-0.44799805,-0.87872314,0.26971436,-11.59375,-10.671875,0.828125
65,1695730221968,-0.39941406,-0.7407837,0.3673706,6.046875,0.8125,-1.4375
66,1695730222009,-0.43432617,-0.88653564,0.35906982,2.96875,15.015625,-2.859375
67,1695730222039,-0.44921875,-1.0193481,0.3690796,5.109375,1.328125,8.578125
68,1695730222085,-0.3466797,-0.9776001,0.31488037,1.8125,-7.421875,2.40625
69,1695730222129,-0.30566406,-0.8623657,0.30828857,2.84375,8.703125,2.359375
70,1695730222159,-0.4765625,-0.7505493,0.23309326,14.40625,-1.890625,10.296875
71,1695730222205,-0.3137207,-0.9031372,0.37860107,-14.015625,8.828125,-3.390625
72,1695730222234,-0.5217285,-0.9841919,0.41351318,-0.71875,-3.609375,8.09375
73,1695730222279,-0.421875,-1.0222778,0.3534546,6.921875,8.734375,-0.859375
74,1695730222325,-0.44018555,-0.81085205,0.40130615,24.390625,15.390625,0.203125
75,1695730222354,-0.40112305,-0.81915283,0.26849365,6.0625,18.9375,5.59375
76,1695730222399,-0.38500977,-0.9055786,0.38861084,-0.4375,6.0625,1.390625
77,1695730222444,-0.25585938,-1.0286255,0.3475952,-4.125,2.140625,-0.890625
78,1695730222474,-0.42260742,-0.8428345,0.25482178,10.75,12.375,9.953125
79,1695730222519,-0.35107422,-0.90460205,0.36102295,6.359375,21.671875,3.6875
80,1695730222564,-0.37304688,-1.0181274,0.4328003,18.109375,9.828125,4.171875
81,1695730222595,-0.38989258,-0.9883423,0.38275146,23.046875,4.578125,10.25
82,1695730222638,-0.23925781,-0.9302368,0.2748413,-13.9375,18.96875,17.1875
83,1695730222669,-0.27246094,-0.8508911,0.22625732,2.546875,9.828125,3.671875
84,1695730222714,-0.19970703,-1.0010376,0.30999756,-8.0,5.515625,-2.125
85,1695730222759,-0.2932129,-1.0327759,0.39959717,7.1875,8.125,2.125
86,1695730222789,-0.1538086,-0.8430786,0.24603271,-2.703125,-4.484375,-4.65625
87,1695730222850,-0.16992188,-0.94122314,0.28094482,-9.265625,8.3125,4.421875
88,1695730222865,-0.36547852,-1.0718384,0.3632202,3.984375,0.234375,1.3125
89,1695730222909,-0.47973633,-0.9517212,0.29510498,6.65625,7.65625,1.5
90,1695730222955,-0.15771484,-0.8411255,0.3373413,9.171875,-0.15625,-3.40625
91,1695730222994,-0.24145508,-0.8557739,0.39105225,6.734375,4.03125,11.671875
92,1695730223029,-0.3569336,-1.0061646,0.3270874,-15.1875,2.5,-1.03125
93,1695730223076,-0.27978516,-1.0669556,0.34002686,0.84375,0.109375,0.171875
94,1695730223105,-0.24511719,-1.0200806,0.3768921,-0.421875,6.671875,-0.984375
95,1695730223149,-0.23413086,-0.7503052,0.25091553,2.03125,-0.453125,-3.296875
96,1695730223179,-0.2602539,-0.9019165,0.3139038,-8.59375,5.265625,-2.03125
97,1695730223224,-0.26245117,-1.08844,0.32513428,-8.140625,-0.21875,0.484375
98,1695730223284,-0.26660156,-0.991272,0.29730225,-2.8125,-0.125,-7.671875
99,1695730223299,-0.18481445,-0.80352783,0.31585693,5.734375,2.125,-2.140625
100,1695730223345,-0.27270508,-0.88409424,0.29925537,2.0,-2.0,-1.59375
101,1695730223389,-0.2355957,-1.0239868,0.3727417,-1.640625,-4.546875,-2.359375
102,1695730223419,-0.28955078,-1.008606,0.33172607,1.390625,-6.25,-4.96875
103,1695730223467,-0.3269043,-0.8965454,0.28240967,4.515625,0.671875,-7.078125
104,1695730223494,-0.21948242,-0.89727783,0.49139404,24.046875,13.703125,-7.71875
105,1695730223540,-0.49243164,-0.98443604,0.5109253,31.015625,30.125,3.234375
106,1695730223583,-0.453125,-0.815979,0.3612671,4.40625,12.421875,9.625
107,1695730223613,-0.27270508,-0.97906494,0.12591553,-21.953125,-5.859375,-4.40625
108,1695730223658,-0.19506836,-0.9834595,0.13665771,3.4375,-27.203125,-11.671875
109,1695730223704,-0.036132812,-1.2886353,0.124694824,13.0625,0.15625,1.1875
110,1695730223737,-0.72875977,-0.82354736,0.22869873,-17.703125,-21.078125,13.25
111,1695730223778,-0.38012695,-0.9060669,0.35980225,-35.828125,-24.875,-27.28125
112,1695730223824,-0.2854004,-0.8242798,0.3258667,11.9375,5.8125,-6.265625
113,1695730223855,-0.2277832,-0.89923096,0.27288818,-0.296875,8.1875,-7.046875
114,1695730223899,-0.26416016,-0.97003174,0.30218506,-0.96875,-13.03125,-9.515625
115,1695730223929,-0.35839844,-0.8179321,0.43499756,-15.0,-43.828125,9.15625
116,1695730223975,-0.5761719,-0.9746704,0.32977295,-43.125,-8.6875,4.25
117,1695730224019,-0.6040039,-1.0249634,0.35784912,33.9375,0.609375,16.671875
118,1695730224049,-0.4248047,-0.9356079,0.2736206,42.609375,11.96875,6.640625
119,1695730224096,-0.27490234,-0.8882446,0.27752686,13.0625,4.625,-0.140625
120,1695730224139,-0.22045898,-0.9951782,0.33343506,-23.65625,7.390625,-11.96875
121,1695730224169,-0.43481445,-0.7764282,0.17791748,-16.453125,-6.5625,-0.78125
122,1695730224214,-0.38867188,-0.9795532,0.18011475,11.65625,2.859375,11.65625
123,1695730224246,-0.3486328,-1.0796509,0.15130615,-4.0,8.21875,4.671875
124,1695730224290,-0.3239746,-1.0901489,0.29486084,20.59375,-0.109375,6.546875
125,1695730224336,-0.25463867,-0.8189087,0.27288818,0.984375,10.96875,0.421875
126,1695730224368,-0.2277832,-0.72052,0.14007568,-12.703125,2.28125,-6.34375
127,1695730224408,-0.23266602,-0.880188,0.22991943,-5.546875,-8.875,2.140625
128,1695730224470,-0.38671875,-1.1668091,0.36273193,-30.453125,-16.640625,4.515625
129,1695730224482,-0.5891113,-1.1453247,0.37591553,13.140625,-1.859375,6.0
130,1695730224528,-0.46020508,-0.8233032,0.23431396,33.90625,20.921875,0.90625
131,1695730224603,-0.3178711,-0.81988525,0.30975342,-11.0,9.40625,1.4375
132,1695730224605,-0.06958008,-0.86505127,0.1708374,-24.0625,10.21875,-18.890625
133,1695730224648,-0.057861328,-0.83917236,0.45159912,1.0,-10.890625,1.453125
134,1695730224679,-0.640625,-1.1824341,0.20550537,-32.671875,-5.625,13.828125
135,1695730224723,-0.49243164,-1.0457153,0.2723999,32.328125,8.0625,3.078125
136,1695730224770,-0.15966797,-0.9006958,0.34002686,44.375,12.484375,-0.078125
137,1695730224799,-0.37426758,-0.9241333,0.28851318,-2.84375,2.921875,5.859375
138,1695730224847,-0.32006836,-0.83013916,0.26800537,-29.359375,-3.1875,-4.703125
139,1695730224874,-0.4309082,-0.92071533,0.15911865,-23.53125,0.28125,-11.9375
140,1695730224919,-0.21166992,-1.0169067,0.31781006,14.921875,5.640625,6.34375
141,1695730224965,-0.34106445,-1.0532837,0.32659912,20.96875,10.75,3.203125
142,1695730225010,-0.5715332,-0.9937134,0.22943115,11.40625,5.65625,5.765625
143,1695730225041,-0.39916992,-0.8406372,0.21844482,-9.46875,7.53125,-2.609375
144,1695730225099,-0.041503906,-0.6289673,0.39105225,-10.6875,-4.40625,-11.140625
145,1695730225114,-0.23291016,-0.9817505,0.32562256,-7.34375,1.8125,15.703125
146,1695730225159,-0.58325195,-1.2302856,0.31048584,7.484375,13.9375,6.140625
147,1695730225189,-0.54785156,-1.0449829,0.27703857,13.796875,3.046875,-2.734375
148,1695730225234,-0.22338867,-0.80718994,0.31414795,-13.96875,12.6875,-3.734375
149,1695730225280,-0.056884766,-0.68878174,0.31732178,-6.34375,-0.921875,-11.921875
150,1695730225308,-0.28320312,-0.94976807,0.36395264,-4.0,-0.578125,9.34375
151,1695730225354,-0.49731445,-1.0811157,0.2687378,1.703125,-2.203125,4.453125
152,1695730225399,-0.3996582,-1.0186157,0.23431396,-22.21875,-7.125,-4.953125
153,1695730225429,-0.24926758,-0.87286377,0.39935303,-12.59375,-12.78125,-9.1875
154,1695730225474,-0.26171875,-0.82403564,0.31903076,3.0625,-11.90625,-1.015625
155,1695730225507,-0.45092773,-0.92510986,0.32806396,0.109375,0.75,-0.171875
156,1695730225548,-0.3935547,-0.8911743,0.4401245,17.453125,2.78125,-6.421875
157,1695730225594,-0.42089844,-0.9976196,0.369812,32.875,2.34375,7.5
158,1695730225625,-0.18774414,-0.94781494,0.2255249,-11.203125,31.421875,4.21875
159,1695730225670,-0.36645508,-0.90997314,0.23822021,24.375,19.75,28.15625
160,1695730225729,-0.40844727,-0.9067993,0.07659912,-11.1875,-21.0,8.15625
161,1695730225742,-0.09741211,-1.0496216,0.013122559,54.234375,-17.875,2.671875
162,1695730225789,-0.41845703,-1.0908813,0.4171753,-56.296875,-3.625,11.234375
163,1695730225819,-0.33789062,-0.8320923,0.3060913,-39.90625,-0.984375,-48.484375
164,1695730225866,-0.40405273,-0.65411377,0.2765503,33.90625,-0.4375,12.53125
165,1695730225908,-0.17871094,-1.0015259,0.20941162,-13.03125,14.828125,-6.15625
166,1695730225939,-0.43725586,-1.2080688,0.21307373,10.21875,12.046875,-2.265625
167,1695730225984,-0.3046875,-0.90093994,0.3522339,-33.1875,-14.078125,-16.859375
168,1695730226029,-0.23120117,-0.6687622,0.39105225,9.515625,-2.453125,12.59375
169,1695730226059,-0.58740234,-0.8501587,0.3788452,-2.015625,0.859375,6.828125
170,1695730226105,-0.28051758,-1.0264282,0.13861084,-15.125,14.328125,-5.953125
171,1695730226135,-0.23291016,-1.2651978,0.3932495,13.578125,-3.890625,-0.15625
172,1695730226178,-0.20214844,-1.0479126,0.30096436,-22.953125,-15.3125,-14.765625
173,1695730226227,-0.36499023,-0.6206665,0.33465576,-4.703125,-12.859375,-7.546875
174,1695730226259,-0.50390625,-0.7498169,0.3012085,8.6875,-5.90625,-1.546875
175,1695730226299,-0.3330078,-0.94610596,0.27508545,3.828125,1.1875,-2.859375
176,1695730226345,-0.36791992,-1.1109009,0.18353271,-26.203125,-11.09375,-13.453125
177,1695730226374,-0.20605469,-1.2183228,0.31756592,6.125,-13.90625,-8.328125
178,1695730226419,-0.37841797,-0.63360596,0.42401123,3.21875,-5.9375,14.65625
179,1695730226449,-0.7438965,-0.53741455,0.3048706,-7.0625,7.359375,-4.90625
180,1695730226494,-0.4597168,-0.866272,0.28045654,-22.5,18.25,-7.71875
181,1695730226554,-0.2265625,-1.1257935,0.38787842,-24.765625,0.171875,-14.171875
182,1695730226569,-0.45922852,-1.1165161,0.385437,-18.703125,-24.109375,-0.40625
183,1695730226618,-0.48608398,-0.5991821,0.45233154,17.234375,0.0,20.390625
184,1695730226659,-0.6335449,-0.7268677,0.54901123,15.34375,9.203125,2.734375
185,1695730226690,-0.40234375,-0.99884033,0.3241577,-9.03125,20.984375,-23.90625
186,1695730226734,-0.46875,-1.0618286,0.56243896,14.65625,-16.84375,2.625
187,1695730226766,-0.44360352,-0.95684814,0.2399292,-18.015625,-9.859375,-12.984375
188,1695730226809,-0.43554688,-0.6560669,0.34832764,9.796875,-3.734375,9.4375
189,1695730226869,-0.5563965,-0.76934814,0.34246826,-7.828125,12.328125,-4.34375
190,1695730226900,-0.36621094,-1.0715942,0.30511475,9.5,7.65625,-1.875
191,1695730226928,-0.39819336,-0.9963989,0.22283936,12.984375,-15.953125,8.625
192,1695730226975,-0.3708496,-0.7312622,0.33392334,5.984375,1.046875,11.015625
193,1695730227007,-0.45410156,-0.73931885,0.3908081,14.296875,7.609375,13.53125
194,1695730227050,-0.40771484,-0.92852783,0.28851318,-11.546875,5.8125,-2.578125
195,1695730227094,-0.46118164,-1.0999146,0.2501831,-3.515625,-6.609375,-5.515625
196,1695730227124,-0.39916992,-0.9541626,0.24212646,-5.4375,-4.9375,-2.625
197,1695730227169,-0.4091797,-0.66412354,0.40545654,5.75,-0.34375,15.390625
198,1695730227199,-0.47509766,-0.85821533,0.43841553,3.734375,14.140625,2.25
199,1695730227244,-0.45239258,-0.9846802,0.30633545,24.65625,25.171875,12.234375
200,1695730227289,-0.3996582,-0.92974854,0.23358154,58.421875,14.15625,24.328125
201,1695730227319,-0.3857422,-1.0913696,0.0993042,10.890625,4.734375,10.84375
202,1695730227366,-0.23828125,-1.1436157,0.18304443,10.53125,18.046875,10.546875
203,1695730227394,-0.28759766,-0.90875244,0.061950684,13.515625,-11.0,3.96875
204,1695730227440,-0.13574219,-0.74786377,-0.2312622,43.09375,-12.1875,8.546875
205,1695730227485,-0.041259766,-1.1541138,0.4244995,-12.265625,9.515625,10.046875
206,1695730227514,-0.48168945,-0.97540283,0.20062256,-18.59375,-12.046875,-10.765625
207,1695730227559,-0.29589844,-0.8237915,0.2399292,-10.796875,15.84375,-13.671875
208,1695730227605,-0.31884766,-0.9295044,0.14447021,38.8125,5.71875,19.984375
209,1695730227636,-0.1159668,-1.1924438,0.03778076,-25.328125,-0.921875,-5.84375
210,1695730227679,-0.34594727,-0.9661255,0.2098999,-26.953125,-15.796875,0.578125
211,1695730227724,-0.33789062,-0.8726196,0.1749878,-30.71875,1.09375,-8.234375
212,1695730227754,-0.43066406,-0.8574829,0.2098999,6.21875,21.8125,2.984375
213,1695730227799,-0.26953125,-1.0369263,0.14422607,6.65625,19.03125,3.734375
214,1695730227829,-0.21191406,-1.1123657,0.16278076,-23.71875,-3.921875,0.6875
215,1695730227874,-0.12792969,-0.93951416,0.34417725,-13.5625,-11.328125,-9.0
216,1695730227919,-0.4711914,-0.92071533,0.32635498,8.046875,15.09375,7.46875
217,1695730227949,-0.42358398,-0.92559814,0.36029053,9.09375,7.96875,-4.515625
218,1695730227993,-0.23486328,-1.0100708,0.13812256,-4.453125,-0.0625,-3.21875
219,1695730228040,-0.18896484,-0.9168091,0.40008545,-7.84375,-9.109375,-12.171875
220,1695730228069,-0.4663086,-0.93878174,0.36102295,-18.21875,-8.4375,4.296875
221,1695730228114,-0.3515625,-0.9002075,0.3661499,-24.796875,1.015625,-11.015625
222,1695730228143,-0.2836914,-1.0283813,0.24847412,14.046875,2.875,1.25
223,1695730228188,-0.26733398,-1.0305786,0.20697021,-6.65625,5.875,-15.796875
224,1695730228236,-0.3527832,-0.90338135,0.41082764,-2.65625,3.046875,8.515625
225,1695730228266,-0.48217773,-0.7854614,0.29119873,-10.96875,-0.28125,3.375
226,1695730228309,-0.43652344,-0.85357666,0.33514404,10.546875,15.890625,-1.921875
227,1695730228355,-0.2788086,-1.0418091,0.30316162,0.96875,6.828125,-5.203125
228,1695730228388,-0.26342773,-1.0320435,0.52508545,22.53125,14.546875,4.984375
229,1695730228430,-0.5812988,-0.82476807,0.1786499,-21.375,8.09375,20.640625
230,1695730228459,-0.3076172,-0.84210205,0.38519287,1.515625,8.953125,10.265625
231,1695730228507,-0.1171875,-1.0488892,0.28631592,4.28125,4.078125,-10.734375
232,1695730228548,-0.26367188,-1.0205688,0.3595581,-0.25,-1.859375,-5.21875
233,1695730228580,-0.203125,-0.8530884,0.32757568,-8.59375,-5.875,-10.796875
234,1695730228624,-0.26098633,-0.77471924,0.4130249,3.125,-4.53125,-8.3125
235,1695730228700,-0.47827148,-0.94195557,0.27874756,-7.078125,-8.71875,11.1875
236,1695730228703,-0.30566406,-1.072815,0.39569092,1.0,4.5,2.9375
237,1695730228745,-0.30395508,-1.1585083,0.36541748,3.484375,2.234375,-3.71875
238,1695730228776,-0.29003906,-0.67926025,0.37005615,19.3125,-1.625,-9.15625
239,1695730228819,-0.4819336,-0.6968384,0.19256592,7.328125,-4.84375,14.078125
240,1695730228866,-0.41552734,-0.95928955,0.34100342,-9.421875,3.25,3.921875
241,1695730228900,-0.31274414,-1.2283325,0.26434326,9.84375,5.15625,3.859375
242,1695730228940,-0.1550293,-1.0508423,0.369812,15.609375,-0.921875,-4.859375
243,1695730228999,-0.33398438,-0.82769775,0.19573975,4.484375,-3.8125,-1.578125
244,1695730229016,-0.3269043,-0.8335571,0.22943115,-1.25,-2.65625,-4.5
245,1695730229059,-0.27416992,-0.95147705,0.3300171,-12.03125,-17.328125,-7.265625
246,1695730229089,-0.36206055,-1.0222778,0.2633667,-15.953125,-0.140625,-0.5625
247,1695730229136,-0.3984375,-0.9819946,0.23065186,16.1875,8.921875,9.375
248,1695730229179,-0.3022461,-0.98516846,0.26287842,17.09375,4.265625,-1.15625
249,1695730229209,-0.38452148,-1.0567017,0.16766357,6.421875,-5.203125,-7.90625
250,1695730229258,-0.31103516,-0.9385376,0.21624756,-16.6875,-2.8125,-8.515625
251,1695730229299,-0.32177734,-0.72857666,0.3920288,-0.921875,-18.359375,-11.921875
252,1695730229329,-0.55444336,-0.85284424,0.10321045,3.3125,3.390625,12.578125
253,1695730229374,-0.3647461,-1.0530396,0.29779053,23.4375,15.96875,14.4375
254,1695730229406,-0.33154297,-1.3074341,0.09075928,-1.078125,4.578125,5.71875
255,1695730229450,-0.2866211,-0.8838501,0.19622803,-12.1875,-12.6875,-10.234375
256,1695730229499,-0.2109375,-0.7317505,0.32635498,-1.90625,-3.90625,-6.15625
257,1695730229523,-0.5397949,-0.7698364,0.14227295,3.4375,2.953125,10.9375
258,1695730229569,-0.45922852,-1.0847778,0.21966553,19.28125,18.65625,15.3125
259,1695730229613,-0.29882812,-1.2786255,0.12738037,17.671875,15.5,9.578125
260,1695730229642,-0.2331543,-1.0337524,0.07318115,-25.609375,-6.328125,-13.03125
261,1695730229690,-0.15429688,-0.72369385,0.27459717,-12.53125,-5.1875,-6.5625
262,1695730229718,-0.33447266,-0.73223877,0.14910889,-2.90625,9.84375,7.859375
263,1695730229766,-0.5402832,-1.1004028,0.21282959,4.53125,11.546875,9.59375
264,1695730229811,-0.26464844,-1.1626587,0.21038818,5.34375,14.546875,1.75
265,1695730229847,-0.15820312,-0.9434204,0.20526123,16.078125,5.765625,8.28125
266,1695730229883,-0.28442383,-0.93585205,0.19598389,-12.734375,0.9375,4.0
267,1695730229928,-0.3137207,-0.9006958,0.21429443,-17.6875,-8.25,-15.875
268,1695730229957,-0.23632812,-0.9024048,0.23919678,-11.71875,1.171875,-5.53125
269,1695730230003,-0.32250977,-1.0315552,0.26776123,5.046875,14.03125,10.640625
270,1695730230033,-0.29125977,-0.9768677,0.29193115,19.359375,12.71875,3.234375
271,1695730230079,-0.2524414,-1.0835571,0.11175537,-18.03125,12.359375,0.953125
272,1695730230123,-0.16333008,-0.956604,0.3529663,-17.984375,-12.921875,-12.96875
273,1695730230153,-0.23022461,-0.8765259,0.16741943,-24.1875,-2.796875,-10.390625
274,1695730230199,-0.38256836,-0.92144775,0.26483154,-7.28125,4.328125,-7.5625
275,1695730230245,-0.28173828,-0.9524536,0.3998413,-1.90625,11.171875,2.265625
276,1695730230274,-0.4345703,-0.87994385,0.22357178,-9.0625,-1.4375,1.390625
277,1695730230319,-0.33569336,-0.94317627,0.33050537,0.125,3.71875,-1.65625
278,1695730230349,-0.28295898,-0.9907837,0.33636475,-6.265625,-4.03125,-9.9375
279,1695730230394,-0.41479492,-0.90582275,0.371521,-9.015625,-6.296875,-7.578125
280,1695730230439,-0.43652344,-0.9522095,0.3751831,-8.015625,4.1875,-9.71875
281,1695730230469,-0.36938477,-0.8369751,0.42962646,-15.953125,2.671875,-4.078125
282,1695730230514,-0.38476562,-0.89190674,0.48968506,-10.609375,9.015625,3.453125
283,1695730230559,-0.4736328,-0.864563,0.3805542,-4.921875,8.84375,-7.1875
284,1695730230589,-0.38671875,-0.8713989,0.557312,9.421875,33.59375,-1.59375
285,1695730230634,-0.17895508,-0.9651489,0.4076538,24.21875,23.25,2.046875
286,1695730230665,-0.34521484,-0.81256104,0.30633545,-8.34375,-4.890625,2.34375
287,1695730230709,-0.38183594,-0.788147,0.31219482,12.96875,-12.265625,1.3125
288,1695730230754,-0.24975586,-1.0300903,0.33514404,9.96875,-21.53125,17.46875
289,1695730230786,-0.36547852,-1.1543579,0.2387085,-1.71875,-39.328125,9.484375
290,1695730230829,-0.5197754,-1.0413208,0.52020264,-51.0,-11.328125,-7.828125
291,1695730230874,-0.17797852,-0.6951294,0.6400757,10.75,0.1875,-16.71875
292,1695730230904,-0.6074219,-0.6777954,0.23846436,-16.671875,-1.6875,3.921875
293,1695730230949,-0.23706055,-0.8694458,0.3920288,1.640625,13.8125,-8.96875
294,1695730230978,-0.17407227,-1.1287231,0.30023193,8.484375,-11.40625,-11.46875
295,1695730231023,-0.29833984,-1.038147,0.3451538,-15.796875,-39.3125,-4.375
296,1695730231070,-0.39672852,-0.65338135,0.56585693,2.71875,-30.421875,21.40625
297,1695730231100,-0.60839844,-0.767395,0.26287842,-4.890625,-18.109375,7.546875
298,1695730231145,-0.57958984,-0.87164307,0.47283936,14.40625,-6.46875,-4.4375
299,1695730231189,-0.4033203,-1.0762329,0.25360107,3.15625,-8.40625,1.609375
300,1695730231220,-0.2861328,-1.0300903,0.28045654,-26.65625,-4.296875,-8.640625
301,1695730231265,-0.5744629,-0.78570557,0.30975342,-27.265625,-9.28125,6.171875
302,1695730231309,-0.48901367,-0.75787354,0.3756714,-3.71875,-0.65625,19.0625
303,1695730231338,-0.4111328,-0.99224854,0.338562,-12.90625,21.078125,-15.953125
304,1695730231384,-0.16259766,-1.034729,0.18792725,20.296875,12.609375,-4.828125
305,1695730231415,-0.36279297,-1.0650024,0.35076904,27.84375,4.640625,7.3125
306,1695730231459,-0.55249023,-0.97491455,0.12542725,-9.078125,-7.015625,-4.78125
307,1695730231505,-0.48266602,-0.6248169,0.3505249,20.0625,-5.375,17.28125
308,1695730231535,-0.5539551,-0.753479,0.27215576,-11.5,-0.21875,7.3125
309,1695730231579,-0.16967773,-1.0918579,0.31170654,-4.78125,16.984375,-4.140625
310,1695730231623,-0.39770508,-1.3279419,0.387146,4.484375,-9.109375,5.78125
311,1695730231653,-0.47045898,-0.8982544,0.25482178,0.03125,-4.9375,7.15625
312,1695730231699,-0.38183594,-0.73443604,0.38128662,-10.796875,0.375,8.1875
313,1695730231729,-0.46972656,-0.6018677,0.38812256,5.359375,-2.265625,10.03125
314,1695730231775,-0.28027344,-1.0652466,0.3727417,-14.78125,17.375,-2.03125
315,1695730231820,-0.19897461,-1.2080688,0.40008545,6.546875,9.625,0.203125
316,1695730231850,-0.34448242,-0.9993286,0.39227295,12.9375,3.0,6.578125
317,1695730231895,-0.34375,-0.7202759,0.33758545,7.90625,-1.828125,8.328125
318,1695730231939,-0.35327148,-0.62945557,0.32806396,2.875,-2.265625,21.484375
319,1695730231970,-0.32958984,-1.0545044,0.38812256,-28.203125,15.5625,-1.671875
320,1695730232018,-0.21118164,-1.1917114,0.4491577,15.25,13.6875,6.46875
321,1695730232045,-0.26635742,-1.0755005,0.35076904,9.21875,-1.59375,2.9375
322,1695730232091,-0.234375,-0.9273071,0.28582764,-21.09375,-10.765625,-11.640625
323,1695730232135,-0.34228516,-0.67926025,0.3390503,-16.328125,-5.578125,-10.40625
324,1695730232164,-0.34570312,-0.83843994,0.42523193,-8.984375,22.65625,10.484375
325,1695730232210,-0.36523438,-0.9776001,0.4557495,15.96875,24.78125,6.125
326,1695730232255,-0.24316406,-1.0283813,0.37982178,48.5,31.390625,4.078125
327,1695730232285,-0.10864258,-1.1350708,0.3143921,11.65625,13.984375,0.40625
328,1695730232330,-0.1887207,-0.8428345,0.26019287,-6.453125,-5.609375,-5.5
329,1695730232359,-0.3010254,-0.91290283,0.22357178,-7.328125,-2.890625,-1.15625
330,1695730232405,-0.21850586,-0.96343994,0.31732178,6.9375,-8.96875,3.578125
331,1695730232450,-0.17285156,-1.1050415,0.17156982,34.4375,-17.34375,10.640625
332,1695730232479,-0.13623047,-1.072815,0.2921753,47.53125,8.4375,11.734375
333,1695730232524,-0.5480957,-0.80181885,0.26849365,-63.59375,-25.328125,4.390625
334,1695730232570,-0.12695312,-0.91363525,0.21600342,-47.609375,4.21875,-31.9375
335,1695730232599,-0.19018555,-0.9866333,0.42303467,14.5625,19.65625,-2.71875
336,1695730232646,-0.33374023,-1.0117798,0.32635498,25.390625,8.5,8.875
337,1695730232673,-0.22949219,-1.017395,0.23626709,-11.734375,-2.890625,1.8125
338,1695730232718,-0.26391602,-0.8838501,0.46844482,-16.34375,-20.78125,-11.0
339,1695730232765,-0.37109375,-0.8652954,0.23699951,-32.203125,-2.046875,-12.25
340,1695730232796,-0.35009766,-0.92266846,0.43621826,5.21875,18.015625,-16.75
341,1695730232839,-0.30908203,-0.9890747,0.43743896,25.96875,13.953125,2.15625
342,1695730232885,-0.33666992,-1.0481567,0.31292725,1.859375,9.109375,1.09375
343,1695730232914,-0.25439453,-0.87335205,0.34832764,-5.5625,6.015625,-6.640625
344,1695730232959,-0.38891602,-0.7263794,0.2506714,-2.953125,13.234375,1.203125
345,1695730232989,-0.22387695,-0.9192505,0.4393921,21.328125,29.21875,9.109375
346,1695730233048,-0.38500977,-1.2703247,0.15228271,52.265625,25.578125,24.203125
347,1695730233079,-0.2019043,-0.99420166,0.28363037,2.625,6.4375,-3.8125
348,1695730233108,-0.12768555,-0.81988525,0.28851318,-26.859375,-3.625,-12.03125
349,1695730233154,-0.2331543,-0.78448486,0.31732178,-27.25,-6.46875,-6.46875
350,1695730233199,-0.18066406,-0.82598877,0.25091553,10.703125,1.84375,-5.40625
351,1695730233229,-0.1303711,-0.97076416,0.4401245,33.15625,-10.640625,3.21875
352,1695730233275,-0.23706055,-1.1621704,0.2711792,-10.984375,-18.03125,7.765625
353,1695730233305,-0.40722656,-1.1069946,0.2772827,-34.875,-17.984375,7.46875
354,1695730233349,-0.3371582,-0.91485596,0.34246826,-14.515625,3.984375,-9.984375
355,1695730233393,-0.2824707,-0.8284302,0.31658936,-1.890625,5.734375,-7.0625
356,1695730233423,-0.3046875,-0.8328247,0.27508545,21.375,10.578125,-2.828125
357,1695730233469,-0.25097656,-0.78204346,0.31854248,-5.921875,-8.6875,-4.171875
358,1695730233514,-0.36816406,-1.0357056,0.36395264,-34.40625,-23.671875,-0.140625
359,1695730233559,-0.41210938,-1.149231,0.49383545,-17.875,3.453125,4.890625
360,1695730233589,-0.2631836,-0.98687744,0.30145264,11.0,26.359375,0.046875
361,1695730233619,-0.30029297,-0.769104,0.24334717,19.625,8.4375,-8.359375
362,1695730233665,-0.24023438,-0.79034424,0.28338623,-15.171875,-0.484375,-5.78125
363,1695730233709,-0.10644531,-0.9072876,0.39007568,-23.703125,-18.28125,-2.328125
364,1695730233738,-0.39135742,-0.9871216,0.42010498,-0.65625,-13.125,1.359375
365,1695730233784,-0.46142578,-1.1084595,0.38739014,6.078125,13.8125,14.890625
366,1695730233828,-0.3947754,-0.9343872,0.2904663,19.59375,3.328125,-9.859375
367,1695730233858,-0.2553711,-0.90167236,0.39276123,2.984375,14.3125,-1.984375
368,1695730233903,-0.20141602,-0.7798462,0.37493896,-19.421875,-3.90625,-6.640625
369,1695730233935,-0.22094727,-0.83551025,0.50897217,3.765625,-12.59375,1.265625
370,1695730233979,-0.38061523,-1.0147095,0.3397827,-15.296875,-4.625,7.609375
371,1695730234027,-0.4020996,-1.0374146,0.34661865,2.0625,-11.90625,-2.296875
372,1695730234056,-0.32714844,-0.93585205,0.3685913,-7.984375,-3.109375,-6.046875
373,1695730234098,-0.27001953,-0.83306885,0.47113037,-3.703125,-15.46875,-1.1875
374,1695730234144,-0.46142578,-0.7630005,0.3612671,-22.40625,-17.265625,8.203125
375,1695730234175,-0.49853516,-0.9758911,0.52093506,-21.0625,6.578125,3.796875
376,1695730234218,-0.42993164,-0.97613525,0.5944214,-4.28125,16.96875,-7.953125
377,1695730234249,-0.3310547,-0.9324341,0.55267334,65.9375,39.5625,1.921875
378,1695730234295,-0.24658203,-1.0476685,0.355896,21.359375,30.484375,-5.78125
379,1695730234338,-0.17675781,-0.7866821,0.10101318,-35.03125,-0.671875,-13.203125
380,1695730234369,-0.22558594,-0.8257446,0.24578857,6.53125,-16.4375,-1.03125
381,1695730234418,-0.34057617,-1.0889282,0.26971436,4.96875,-19.328125,7.03125
382,1695730234460,-0.31103516,-0.99005127,0.09906006,31.875,-21.546875,17.171875
383,1695730234491,-0.24584961,-1.2053833,0.17376709,39.875,-9.75,14.765625
384,1695730234536,-0.35058594,-0.81378174,0.32684326,-38.328125,-24.625,-13.40625
385,1695730234565,-0.32470703,-0.70440674,0.30389404,-18.671875,-10.59375,-11.84375
386,1695730234610,-0.50341797,-0.89923096,0.4406128,22.609375,14.71875,19.375
387,1695730234657,-0.4831543,-1.0940552,0.2333374,2.828125,23.703125,11.671875
388,1695730234683,-0.24926758,-1.1765747,0.24822998,11.484375,5.6875,3.0625
389,1695730234731,-0.20141602,-1.0730591,0.43670654,8.46875,5.265625,0.9375
390,1695730234775,-0.26904297,-0.7112427,0.3258667,-16.28125,-1.296875,-15.90625
391,1695730234804,-0.39648438,-0.5667114,0.043395996,-6.859375,4.796875,-9.34375
392,1695730234863,-0.3552246,-0.9290161,0.49969482,20.328125,9.703125,17.078125
393,1695730234878,-0.37768555,-1.3494263,-0.01763916,-29.671875,-4.578125,-1.59375
394,1695730234926,-0.034179688,-1.2649536,0.40325928,38.953125,17.71875,-1.90625
395,1695730234970,-0.31396484,-0.8648071,0.33172607,-11.828125,10.390625,-5.0625
396,1695730235014,-0.30908203,-0.40899658,0.16937256,-25.984375,-15.265625,-6.71875
397,1695730235045,-0.29248047,-0.7739868,0.1762085,9.265625,5.078125,14.890625
398,1695730235091,-0.45239258,-1.6011353,0.5350952,-10.765625,18.75,-11.859375
399,1695730235119,-0.30029297,-1.0049438,0.2584839,-7.03125,-11.96875,-4.1875
400,1695730235164,-0.22167969,-0.7061157,0.31781006,-11.03125,8.5625,4.734375
401,1695730235210,-0.39404297,-0.7227173,0.25726318,-1.921875,11.671875,3.125
402,1695730235239,-0.3083496,-1.086731,0.3397827,-7.0,1.921875,-11.1875
403,1695730235285,-0.11816406,-1.0647583,0.33392334,-0.390625,4.75,-10.5625
404,1695730235314,-0.3881836,-0.77838135,0.4376831,8.15625,5.84375,14.96875
405,1695730235359,-0.685791,-0.86676025,0.22039795,-12.625,10.46875,17.328125
406,1695730235407,-0.21606445,-1.0210571,0.32489014,2.375,11.640625,-8.40625
407,1695730235435,-0.09301758,-1.1519165,0.4598999,1.703125,9.28125,-5.5625
408,1695730235479,-0.23803711,-0.7954712,0.31097412,-7.171875,-2.03125,-10.375
409,1695730235539,-0.33422852,-0.7217407,0.3060913,-3.28125,4.1875,-4.375
410,1695730235554,-0.3232422,-0.9854126,0.4154663,-5.390625,0.625,-3.15625
411,1695730235599,-0.3466797,-1.1194458,0.32489014,-3.953125,0.453125,4.21875
412,1695730235629,-0.23168945,-0.95928955,0.3973999,-1.296875,1.0625,-2.421875
413,1695730235673,-0.2841797,-0.8250122,0.3451538,2.96875,-0.015625,-4.84375
414,1695730235719,-0.34887695,-0.72003174,0.37371826,4.046875,-14.796875,2.71875
415,1695730235750,-0.2734375,-0.9036255,0.38397217,-11.34375,-7.515625,6.953125
416,1695730235795,-0.39526367,-1.0112915,0.47088623,-1.3125,-7.125,3.140625
417,1695730235839,-0.4555664,-1.0718384,0.31732178,-8.65625,-0.359375,4.1875
418,1695730235869,-0.26733398,-0.95684814,0.46209717,12.765625,7.6875,1.3125
419,1695730235914,-0.26489258,-0.87628174,0.35931396,17.3125,3.515625,-8.765625
420,1695730235946,-0.23291016,-0.82525635,0.28460693,-12.28125,4.75,-4.015625
421,1695730236005,-0.1875,-0.9282837,0.4100952,-11.390625,-12.59375,-15.046875
422,1695730236034,-0.36401367,-0.97979736,0.34588623,-8.453125,-0.4375,-0.65625
423,1695730236065,-0.49853516,-0.80596924,0.35809326,0.578125,-4.171875,3.953125
424,1695730236109,-0.60180664,-0.9109497,0.324646,2.53125,8.359375,11.9375
425,1695730236154,-0.31933594,-0.95928955,0.47601318,12.40625,6.78125,-2.1875
426,1695730236183,-0.19091797,-0.95269775,0.39935303,3.109375,9.828125,-7.265625
427,1695730236229,-0.31518555,-0.85723877,0.36639404,-4.234375,0.359375,-11.609375
428,1695730236259,-0.42504883,-0.9067993,0.3319702,-15.453125,-7.875,-10.125
429,1695730236305,-0.35083008,-0.9290161,0.465271,-9.015625,7.65625,-2.578125
430,1695730236350,-0.3876953,-0.99542236,0.38372803,3.96875,7.359375,5.921875
431,1695730236379,-0.29711914,-0.8040161,0.38909912,4.03125,5.375,1.90625
432,1695730236424,-0.3034668,-0.94854736,0.24041748,-2.953125,-6.609375,-2.5625
433,1695730236469,-0.21923828,-0.9246216,0.3756714,-11.921875,-1.328125,-9.53125
434,1695730236499,-0.47387695,-0.8792114,0.4940796,-6.4375,-10.125,-3.875
435,1695730236545,-0.5227051,-0.831604,0.45159912,-5.171875,-14.6875,-6.1875
436,1695730236577,-0.37695312,-0.9170532,0.43182373,0.375,-8.703125,-4.46875
437,1695730236620,-0.39648438,-0.92926025,0.3378296,-27.46875,-10.421875,-18.859375
438,1695730236665,-0.31201172,-0.6856079,0.42669678,23.859375,-19.40625,-1.53125
439,1695730236696,-0.23779297,-1.0430298,0.36102295,20.359375,-3.40625,14.890625
440,1695730236739,-0.44433594,-0.9898071,0.33465576,-12.9375,-12.578125,-4.515625
441,1695730236783,-0.68188477,-0.6975708,0.41912842,14.21875,-5.046875,6.296875
442,1695730236825,-0.6040039,-0.8123169,0.28900146,12.734375,3.1875,8.015625
443,1695730236858,-0.40161133,-0.95928955,0.168396,-6.203125,18.921875,1.8125
444,1695730236888,-0.20727539,-0.9146118,0.47479248,27.5,1.8125,2.0
445,1695730236934,-0.48364258,-0.9727173,0.45819092,3.5625,29.5625,4.53125
446,1695730236979,-0.38183594,-0.80841064,0.22625732,14.765625,39.328125,19.875
447,1695730237009,-0.5197754,-1.0105591,-0.007385254,39.875,39.5,24.65625
448,1695730237061,-0.13012695,-1.0186157,0.16033936,-2.953125,13.5,-6.296875
449,1695730237097,0.03100586,-0.9260864,0.01776123,-23.828125,-33.46875,4.90625
450,1695730237129,-0.24389648,-0.96051025,0.1749878,-50.890625,-25.453125,30.078125
451,1695730237173,-0.5786133,-1.1663208,0.7086792,-18.40625,-22.546875,18.765625
452,1695730237204,-0.56640625,-0.9043579,0.55389404,12.375,11.9375,-5.828125
453,1695730237249,-0.3383789,-0.7107544,0.25750732,-9.484375,8.703125,-21.140625
454,1695730237295,-0.25097656,-0.6914673,0.30291748,-26.703125,-2.859375,-28.328125
455,1695730237323,-0.43237305,-1.2161255,0.4677124,-55.6875,9.796875,-24.15625
456,1695730237386,-0.59521484,-0.8843384,0.5297241,14.078125,9.65625,-16.5625
457,1695730237416,-0.42773438,-0.67510986,0.50701904,37.765625,19.03125,14.28125
458,1695730237445,-0.42822266,-0.7476196,0.18084717,-2.078125,-1.171875,-13.84375
459,1695730237490,-0.33422852,-0.89630127,0.49749756,-0.0625,-23.5625,-8.53125
460,1695730237519,-0.31152344,-0.99224854,0.48284912,1.71875,-12.5625,13.046875
461,1695730237566,-0.19189453,-0.86724854,0.62005615,20.046875,-21.78125,8.21875
462,1695730237610,-0.2800293,-0.8826294,0.37615967,-0.640625,-30.21875,21.046875
463,1695730237653,-0.30004883,-0.960022,0.31854248,-21.90625,-18.390625,6.9375
464,1695730237683,-0.27490234,-1.0278931,0.50213623,-12.609375,-15.875,2.015625
465,1695730237729,-0.10620117,-0.81329346,0.59295654,-37.296875,-11.390625,-3.75
466,1695730237759,-0.47583008,-0.7632446,0.4628296,-17.65625,-2.1875,-3.359375
467,1695730237805,-0.49389648,-0.8711548,0.44891357,53.296875,11.40625,2.703125
468,1695730237835,-0.49267578,-1.2175903,0.23529053,-11.078125,0.375,-8.609375
469,1695730237879,-0.3293457,-0.86260986,0.45281982,-16.59375,-0.40625,-0.8125
470,1695730237925,-0.53100586,-0.7695923,0.44989014,6.546875,10.5625,10.625
471,1695730237954,-0.72314453,-0.6878052,0.09857178,27.15625,19.109375,6.015625
472,1695730238001,-0.42700195,-0.8569946,0.21063232,16.046875,18.21875,-2.921875
473,1695730238045,-0.2553711,-1.131897,0.32733154,-6.1875,20.578125,-6.703125
474,1695730238075,-0.18823242,-1.0134888,0.34857178,5.40625,5.34375,3.78125
475,1695730238119,-0.44848633,-0.76568604,0.28900146,26.765625,-5.6875,5.703125
476,1695730238149,-0.5690918,-0.81817627,0.17401123,-6.109375,8.859375,-3.140625
477,1695730238195,-0.33203125,-1.1411743,0.3866577,12.625,15.65625,-4.46875
478,1695730238239,-0.22460938,-1.138977,0.2904663,-4.046875,3.4375,-5.25
479,1695730238269,-0.17578125,-0.70758057,0.47454834,11.109375,11.46875,3.1875
480,1695730238314,-0.47631836,-0.927063,0.28997803,16.25,2.390625,13.84375
481,1695730238359,-0.3400879,-0.91119385,0.28875732,-12.625,6.375,0.09375
482,1695730238389,-0.28295898,-1.1218872,0.34539795,0.5,8.796875,0.734375
483,1695730238436,-0.18041992,-0.8977661,0.3336792,-15.515625,-2.046875,-7.828125
484,1695730238464,-0.2241211,-0.7703247,0.3595581,-8.671875,3.59375,3.546875
485,1695730238509,-0.31762695,-0.8960571,0.4472046,-18.984375,-4.390625,1.28125
486,1695730238554,-0.5234375,-1.0227661,0.39520264,-10.875,4.46875,5.921875
487,1695730238584,-0.39624023,-0.97247314,0.42547607,5.828125,4.4375,-1.53125
488,1695730238629,-0.2541504,-0.82281494,0.44036865,-1.78125,2.1875,-3.65625
489,1695730238674,-0.3293457,-0.78375244,0.35247803,-10.90625,7.25,1.34375
490,1695730238705,-0.2770996,-0.8623657,0.46917725,-2.046875,4.953125,-1.53125
491,1695730238749,-0.48217773,-0.9907837,0.37615967,-3.8125,-2.140625,1.671875
492,1695730238795,-0.30541992,-0.87823486,0.46063232,4.953125,-0.5,-4.125
493,1695730238826,-0.31958008,-0.96759033,0.39056396,-1.390625,5.125,5.296875
494,1695730238870,-0.29589844,-0.7678833,0.5043335,3.28125,-4.75,-1.390625
495,1695730238899,-0.4416504,-0.83551025,0.38397217,3.90625,0.234375,4.046875
496,1695730238944,-0.2397461,-0.92803955,0.4328003,4.140625,0.078125,0.765625
497,1695730239022,-0.31420898,-0.97491455,0.3895874,12.5,-6.296875,-1.171875
498,1695730239025,-0.2861328,-0.94000244,0.41619873,5.140625,-4.109375,4.0
499,1695730239066,-0.3256836,-0.9260864,0.4569702,14.015625,-5.796875,-1.296875
500,1695730239109,-0.36572266,-0.8760376,0.2675171,-14.109375,-21.078125,-9.6875
501,1695730239139,-0.30273438,-0.8977661,0.5319214,-1.921875,1.78125,2.96875
502,1695730239185,-0.35131836,-1.0588989,0.18328857,20.4375,-6.0,0.3125
503,1695730239217,-0.40356445,-0.88482666,0.22088623,5.6875,1.65625,14.28125
504,1695730239260,-0.37548828,-0.9524536,0.28289795,15.109375,-1.078125,4.796875
505,1695730239305,-0.18847656,-0.92974854,0.25946045,-6.203125,-0.296875,0.875
506,1695730239337,-0.22485352,-0.9368286,0.2074585,-2.625,-3.234375,-3.21875
507,1695730239379,-0.32299805,-0.84210205,0.3307495,4.296875,-12.734375,-0.015625
508,1695730239425,-0.42358398,-0.9817505,0.21575928,-21.984375,-9.890625,3.9375
509,1695730239457,-0.43579102,-0.9324341,0.3534546,-5.765625,3.09375,-1.140625
510,1695730239498,-0.3852539,-1.0144653,0.47894287,34.515625,27.765625,7.34375
511,1695730239529,-0.4326172,-1.241272,0.2826538,51.890625,19.703125,13.65625
512,1695730239578,-0.13574219,-0.7546997,-0.057678223,-44.921875,-16.609375,-32.921875
513,1695730239620,-0.0036621094,-0.68218994,0.08026123,22.296875,-33.46875,-9.125
514,1695730239649,-0.32617188,-1.4883423,0.17352295,-17.53125,-20.671875,22.984375
515,1695730239692,-0.39453125,-1.2058716,0.16448975,-22.375,-8.96875,-9.875
516,1695730239769,-0.38867188,-0.8374634,0.36712646,-8.015625,-5.21875,-6.90625
517,1695730239771,-0.3713379,-0.63653564,0.22259521,0.390625,-5.40625,-30.265625
518,1695730239815,-0.22094727,-0.66900635,0.27337646,9.84375,25.4375,24.046875
519,1695730239844,-0.40063477,-1.1087036,0.32440186,5.6875,5.484375,5.875
520,1695730239890,-0.59472656,-1.1345825,0.34979248,-36.296875,-8.671875,13.484375
521,1695730239934,-0.35742188,-1.081604,0.33148193,-20.09375,1.828125,8.34375
522,1695730239965,-0.31347656,-0.9390259,0.31781006,38.046875,27.9375,-3.859375
523,1695730240009,-0.375,-0.7283325,0.26483154,44.984375,21.046875,13.390625
524,1695730240055,-0.23925781,-0.878479,0.08294678,2.390625,16.296875,0.3125
525,1695730240087,-0.24682617,-1.0737915,0.2675171,-9.328125,16.71875,-8.953125
526,1695730240130,-0.23364258,-1.0181274,0.21234131,20.109375,-1.125,5.546875
527,1695730240159,-0.30151367,-0.8753052,0.17913818,10.71875,10.140625,20.109375
528,1695730240206,-0.27368164,-0.9319458,0.29925537,13.46875,14.671875,12.1875
529,1695730240250,-0.31152344,-1.112854,0.17572021,3.078125,3.421875,-0.546875
530,1695730240279,-0.18774414,-0.9763794,0.3078003,-22.015625,-7.328125,1.34375
531,1695730240325,-0.15893555,-0.8753052,0.24334717,-28.390625,-11.125,-16.0625
532,1695730240369,-0.29541016,-0.80670166,0.20819092,-16.625,-1.84375,-7.90625
533,1695730240400,-0.33544922,-1.1113892,0.39788818,-10.6875,11.484375,4.21875
534,1695730240445,-0.34936523,-1.1043091,0.23040771,3.078125,4.015625,-2.15625
535,1695730240474,-0.29663086,-1.0176392,0.27850342,-5.453125,4.84375,4.03125
536,1695730240518,-0.11767578,-0.8098755,0.40301514,-1.875,5.375,-9.5
537,1695730240579,-0.29467773,-0.61602783,0.33416748,2.484375,2.78125,0.84375
538,1695730240595,-0.5227051,-0.8440552,0.47210693,11.59375,13.484375,26.4375
539,1695730240640,-0.55566406,-1.1755981,0.30462646,32.125,49.5625,21.171875
540,1695730240685,-0.14819336,-1.2693481,0.19866943,20.9375,56.828125,4.265625
541,1695730240715,0.12915039,-1.0454712,0.23016357,17.953125,32.34375,-2.5625
542,1695730240759,-0.0234375,-0.8088989,0.121520996,-12.953125,-8.9375,-17.09375
543,1695730240805,-0.24731445,-0.7046509,0.08074951,-17.890625,-26.3125,-16.296875
544,1695730240834,-0.1796875,-0.94317627,-0.018127441,-2.890625,-32.3125,-1.0
545,1695730240879,-0.03466797,-1.3052368,0.5414429,-29.125,-31.625,17.125
546,1695730240909,-0.21411133,-0.88848877,0.33807373,-32.71875,-23.484375,-28.328125
547,1695730240954,-0.6335449,-0.8960571,0.2616577,2.703125,-6.890625,7.9375
548,1695730241000,-0.36157227,-0.74468994,0.41741943,3.859375,15.953125,8.96875
549,1695730241029,-0.32080078,-0.83258057,0.38690186,14.5,4.328125,-4.0
550,1695730241075,-0.24658203,-1.361145,0.35614014,-4.640625,-9.484375,6.015625
551,1695730241139,-0.3305664,-1.0540161,0.25726318,-33.21875,-36.359375,-0.3125
552,1695730241150,-0.17651367,-0.9163208,0.45037842,-0.71875,1.234375,-23.0625
553,1695730241196,-0.30786133,-0.91729736,0.24700928,-5.15625,-2.015625,-18.21875
554,1695730241225,-0.24853516,-0.8164673,0.35369873,8.15625,3.8125,-9.109375
555,1695730241269,-0.19140625,-0.88067627,0.2987671,22.171875,2.4375,3.4375
556,1695730241314,-0.27514648,-1.0979614,0.11566162,-26.171875,-38.34375,5.8125
557,1695730241344,-0.4194336,-0.8838501,0.44525146,-23.671875,-18.265625,-2.59375
558,1695730241392,-0.5341797,-0.87506104,0.19940186,-2.0,-1.671875,-2.203125
559,1695730241418,-0.5270996,-0.90631104,0.4225464,15.125,12.9375,6.875
560,1695730241463,-0.33203125,-0.84991455,0.25457764,-17.28125,7.484375,-2.078125
561,1695730241509,-0.18823242,-1.0567017,0.43206787,-12.46875,-6.546875,-13.78125
562,1695730241539,-0.24707031,-1.2000122,0.28582764,-36.171875,-23.984375,-17.625
563,1695730241586,-0.24169922,-0.7439575,0.4381714,11.375,-3.375,-27.484375
564,1695730241629,-0.52563477,-0.6511841,0.4022827,27.4375,1.359375,9.375
565,1695730241659,-0.5588379,-0.71173096,0.41107178,-4.703125,4.875,6.359375
566,1695730241703,-0.5571289,-0.92633057,0.22845459,-21.828125,-0.53125,5.0625
567,1695730241734,-0.34960938,-1.1553345,0.2670288,-11.84375,-15.578125,18.1875
568,1695730241779,-0.1940918,-1.0940552,0.6430054,18.515625,15.140625,8.25
569,1695730241839,-0.48046875,-0.7932739,0.32611084,26.40625,-14.65625,-9.359375
570,1695730241854,-0.51342773,-0.62091064,0.31195068,8.125,14.6875,6.71875
571,1695730241899,-0.37548828,-0.91192627,0.18743896,-18.421875,10.125,-2.296875
572,1695730241944,-0.119384766,-1.2622681,0.33392334,-30.8125,7.015625,-17.109375
573,1695730241975,-0.099853516,-1.0252075,0.50579834,6.96875,-17.8125,-1.625
574,1695730242019,-0.47436523,-0.6260376,0.22772217,14.125,-23.28125,3.75
575,1695730242050,-0.5361328,-0.7468872,0.33148193,-6.578125,2.65625,14.15625
576,1695730242100,-0.46533203,-0.99102783,0.32781982,-28.828125,5.0,4.765625
577,1695730242139,-0.40576172,-1.0786743,0.47698975,-9.671875,2.453125,2.375
578,1695730242170,-0.30615234,-1.072815,0.42791748,-0.984375,3.75,-10.53125
579,1695730242219,-0.2607422,-0.7046509,0.3739624,5.234375,-6.375,-15.453125
580,1695730242262,-0.33325195,-0.725647,0.35321045,2.765625,5.953125,10.15625
581,1695730242288,-0.4645996,-0.9038696,0.37005615,-15.03125,10.78125,15.484375
582,1695730242334,-0.421875,-1.1670532,0.41278076,7.40625,0.359375,6.03125
583,1695730242379,-0.36279297,-1.0772095,0.3847046,8.875,-4.46875,1.90625
584,1695730242408,-0.16040039,-0.7671509,0.3739624,14.1875,1.5625,-13.328125
585,1695730242453,-0.35229492,-0.7034302,0.31195068,7.03125,6.046875,-1.78125
586,1695730242483,-0.50341797,-0.90167236,0.2789917,-13.640625,14.59375,2.5625
587,1695730242531,-0.3996582,-1.0779419,0.46624756,9.359375,18.375,-9.890625
588,1695730242583,-0.31274414,-1.1221313,0.276062,16.46875,-8.953125,-4.015625
589,1695730242604,-0.12646484,-0.8098755,0.42034912,9.28125,15.15625,2.109375
590,1695730242652,-0.34521484,-0.6921997,0.3222046,-1.9375,6.546875,-2.09375
591,1695730242697,-0.5866699,-0.72979736,0.44232178,-19.484375,8.75,2.96875
592,1695730242727,-0.4243164,-1.0066528,0.2855835,-30.65625,10.5625,-7.78125
593,1695730242770,-0.48583984,-1.1306763,0.512146,35.921875,-4.234375,1.796875
594,1695730242799,-0.27124023,-1.1448364,0.60369873,65.875,9.046875,18.859375
595,1695730242845,-0.3322754,-0.54351807,0.124694824,-40.1875,2.5,0.34375
596,1695730242889,-0.38085938,-0.66241455,0.38885498,-1.203125,11.625,1.171875
597,1695730242919,-0.35498047,-1.0535278,0.47943115,-11.265625,16.578125,-11.109375
598,1695730242964,-0.31713867,-1.2947388,0.31365967,-7.046875,4.828125,-9.359375
599,1695730243041,-0.2775879,-1.0029907,0.37420654,17.359375,9.484375,9.1875
600,1695730243045,-0.14868164,-0.5510864,0.28240967,-19.171875,4.328125,-4.1875
601,1695730243090,-0.41308594,-0.628479,0.38006592,2.09375,3.046875,10.9375
602,1695730243159,-0.4272461,-1.1463013,0.4940796,-13.265625,9.109375,1.328125
603,1695730243161,-0.30322266,-1.1707153,0.2904663,-2.125,2.46875,-2.796875
604,1695730243203,-0.35229492,-1.0327759,0.5282593,34.515625,18.5625,2.640625
605,1695730243236,-0.24487305,-0.7217407,0.3131714,-19.375,-23.1875,-21.109375
606,1695730243286,-0.23803711,-0.58306885,0.2897339,-27.90625,2.59375,-4.234375
607,1695730243324,-0.37890625,-1.1148071,0.4701538,-13.125,-1.328125,-12.546875
608,1695730243355,-0.31713867,-0.93292236,0.527771,-0.109375,-9.421875,-16.6875
609,1695730243399,-0.33325195,-0.7620239,0.53582764,-1.59375,-0.46875,8.890625
610,1695730243429,-0.5559082,-0.8609009,0.52142334,26.34375,18.625,12.75
611,1695730243475,-0.62524414,-1.0869751,0.25164795,10.421875,-11.125,5.75
612,1695730243519,-0.6286621,-0.94366455,0.45672607,-12.15625,23.65625,19.03125
613,1695730243549,-0.08276367,-0.7398071,0.2020874,-13.796875,0.796875,-21.78125
614,1695730243594,-0.15942383,-0.8267212,0.3451538,35.640625,-3.5625,11.6875
615,1695730243640,-0.22387695,-1.2617798,0.2675171,34.265625,-29.328125,-3.21875
616,1695730243669,-0.15893555,-0.9121704,0.18133545,-4.828125,9.75,-13.5625
617,1695730243715,-0.34570312,-0.7346802,0.5116577,-5.875,-38.546875,2.203125
618,1695730243745,-0.560791,-0.6260376,0.28875732,-2.46875,-11.5,0.0625
619,1695730243790,-0.49023438,-1.0999146,0.29388428,5.59375,6.09375,6.109375
620,1695730243834,-0.48657227,-1.281311,0.30462646,17.640625,-12.859375,9.1875
621,1695730243864,-0.24487305,-0.80792236,0.41448975,-19.75,-11.640625,-6.828125
622,1695730243909,-0.40893555,-0.69244385,0.33929443,-5.921875,-8.734375,-6.96875
623,1695730243955,-0.5217285,-0.67266846,0.40203857,9.421875,10.203125,-6.59375
624,1695730243983,-0.3996582,-0.9956665,0.21575928,6.0625,2.46875,11.640625
625,1695730244029,-0.28881836,-1.2437134,0.293396,30.328125,16.0,11.828125
626,1695730244058,-0.31835938,-0.96759033,0.25091553,65.125,-5.78125,35.921875
627,1695730244105,-0.50024414,-0.78204346,0.050720215,-20.703125,-14.625,6.8125
628,1695730244165,-0.21655273,-0.8887329,0.12322998,-1.84375,18.21875,-16.375
629,1695730244179,-0.26293945,-1.2300415,0.17181396,17.0,-4.4375,5.4375
630,1695730244224,-0.29174805,-0.89068604,0.14642334,-54.828125,-26.65625,-13.5
631,1695730244269,-0.47607422,-0.6604614,0.48944092,-37.5,-42.921875,4.875
632,1695730244299,-0.5625,-0.8440552,0.27801514,-79.96875,-10.21875,-1.078125
633,1695730244345,-0.12988281,-0.9717407,0.3012085,-16.015625,14.09375,-13.5625
634,1695730244375,-0.21313477,-1.3850708,0.57318115,39.0,15.1875,9.4375
635,1695730244418,-0.37158203,-0.99005127,0.37982178,31.28125,-14.703125,6.546875
636,1695730244463,-0.3347168,-0.72735596,0.23480225,-5.296875,-8.125,-15.890625
637,1695730244493,-0.3972168,-0.73638916,0.16497803,-17.546875,6.28125,-20.5625
638,1695730244540,-0.27783203,-0.9116821,0.35931396,2.765625,19.65625,5.59375
639,1695730244584,-0.21142578,-1.0371704,0.24383545,0.03125,8.6875,11.625
640,1695730244614,-0.36938477,-1.0779419,0.26727295,12.9375,-0.5,8.5625
641,1695730244658,-0.5371094,-0.9468384,0.2826538,-4.625,-16.15625,7.6875
642,1695730244690,-0.27954102,-0.78497314,0.26678467,-38.375,-9.40625,-9.859375
643,1695730244750,-0.3552246,-0.7810669,0.3649292,-50.84375,-9.953125,-19.921875
644,1695730244780,-0.4597168,-0.83795166,0.5072632,5.59375,3.9375,-0.890625
645,1695730244809,-0.42919922,-1.0996704,0.40911865,11.84375,6.90625,14.515625
646,1695730244855,-0.45263672,-0.9729614,0.48138428,20.921875,5.953125,-0.984375
647,1695730244899,-0.35327148,-0.8760376,0.36444092,14.71875,6.640625,-2.859375
648,1695730244929,-0.26464844,-0.81256104,0.28656006,-14.265625,11.703125,-10.75
649,1695730244975,-0.26538086,-0.8218384,0.37786865,-3.921875,13.09375,-7.765625
650,1695730245007,-0.37817383,-0.95635986,0.37005615,18.015625,9.0625,6.296875
651,1695730245050,-0.4975586,-1.0098267,0.2970581,-6.390625,6.5625,6.546875
652,1695730245096,-0.42504883,-0.89630127,0.40179443,14.328125,3.78125,4.6875
653,1695730245124,-0.2697754,-0.8911743,0.45428467,10.78125,24.703125,2.3125
654,1695730245171,-0.40478516,-0.8184204,0.53118896,49.140625,39.796875,3.53125
655,1695730245218,-0.48266602,-1.1155396,0.28729248,36.265625,57.265625,-5.78125
656,1695730245248,0.009765625,-0.9729614,0.15496826,-20.140625,14.5,-10.21875
657,1695730245291,-0.09790039,-0.6956177,0.23358154,29.6875,12.484375,14.296875
658,1695730245322,-0.36035156,-0.87701416,0.07269287,19.53125,-14.96875,21.0625
659,1695730245364,-0.31811523,-1.149231,0.13983154,15.828125,-24.640625,11.5625
660,1695730245408,-0.3840332,-1.1421509,0.40570068,-28.890625,-28.015625,3.328125
661,1695730245438,-0.33642578,-0.7463989,0.33563232,-46.234375,-7.5625,-22.203125
662,1695730245489,-0.27856445,-0.84210205,0.38934326,-13.921875,3.296875,-13.109375
663,1695730245529,-0.34838867,-0.9529419,0.47650146,14.640625,21.375,5.328125
664,1695730245558,-0.4074707,-1.0020142,0.30218506,9.171875,7.15625,8.90625
665,1695730245606,-0.25512695,-1.1502075,0.26971436,10.1875,-0.125,5.90625
666,1695730245634,-0.2685547,-0.92755127,0.44329834,-16.71875,-14.671875,-4.03125
667,1695730245680,-0.2980957,-0.71173096,0.17547607,-33.15625,-7.296875,-16.40625
668,1695730245723,-0.2692871,-0.9602661,0.32611084,9.1875,25.375,-9.5
669,1695730245753,-0.2290039,-1.1160278,0.30413818,18.71875,21.234375,3.78125
670,1695730245799,-0.31396484,-0.93170166,0.35760498,26.140625,-0.953125,12.484375
671,1695730245844,-0.3486328,-0.7503052,0.3505249,-13.484375,-14.609375,15.296875
672,1695730245874,-0.3647461,-0.8533325,0.32928467,-42.0,-6.84375,-9.609375
673,1695730245919,-0.22949219,-0.9963989,0.34832764,-9.1875,10.75,-20.328125
674,1695730245952,-0.35351562,-1.1282349,0.4537964,21.125,2.6875,4.65625
675,1695730246023,-0.29614258,-0.97198486,0.25360107,-22.875,-18.109375,-1.515625
676,1695730246040,-0.16235352,-0.69073486,0.5043335,2.046875,-10.578125,-16.5625
677,1695730246069,-0.51538086,-0.8411255,0.37054443,-10.234375,-16.359375,6.3125
678,1695730246130,-0.43823242,-0.90093994,0.43695068,-21.6875,4.6875,1.859375
679,1695730246159,-0.34301758,-1.0801392,0.3925171,9.890625,6.328125,-1.515625
680,1695730246189,-0.31591797,-1.0112915,0.39544678,22.015625,-4.140625,1.28125
681,1695730246235,-0.38745117,-0.8567505,0.3776245,-10.109375,-21.203125,-2.890625
682,1695730246280,-0.18969727,-0.8213501,0.32196045,-28.21875,-13.265625,-21.953125
683,1695730246309,-0.3798828,-0.87457275,0.35858154,-27.15625,-16.75,-1.984375
684,1695730246355,-0.5390625,-0.78082275,0.42816162,-22.046875,0.203125,0.65625
685,1695730246385,-0.36083984,-0.9768677,0.44085693,4.203125,-0.265625,3.09375
686,1695730246431,-0.39453125,-1.0286255,0.38446045,0.625,-9.296875,-3.375
687,1695730246474,-0.36328125,-0.9209595,0.4940796,22.609375,5.984375,-5.296875
688,1695730246505,-0.34399414,-0.7942505,0.43743896,15.6875,-8.9375,-8.015625
689,1695730246549,-0.5131836,-0.61016846,0.3986206,-9.90625,4.421875,6.390625
690,1695730246594,-0.4321289,-0.90167236,0.33343506,-0.875,2.703125,8.953125
691,1695730246625,-0.46850586,-1.1533813,0.38397217,-5.453125,-2.546875,-8.703125
692,1695730246670,-0.3955078,-1.0064087,0.40838623,21.78125,9.078125,5.90625
693,1695730246699,-0.41479492,-0.8250122,0.42669678,27.53125,1.15625,7.828125
694,1695730246751,-0.39208984,-0.7102661,0.29412842,-26.515625,12.921875,-5.453125
695,1695730246788,-0.3400879,-0.7761841,0.45037842,-27.3125,2.59375,-17.09375
696,1695730246819,-0.33032227,-0.895813,0.5634155,21.359375,15.1875,0.765625
697,1695730246864,-0.49121094,-0.9663696,0.32904053,7.765625,12.75,20.828125
698,1695730246910,-0.50024414,-0.9053345,0.29852295,3.328125,10.140625,10.078125
699,1695730246943,-0.3696289,-1.017395,0.38909912,14.890625,8.984375,3.6875
700,1695730246984,-0.40161133,-0.95880127,0.39007568,19.796875,-5.125,3.546875
701,1695730247013,-0.22509766,-0.9104614,0.23065186,26.375,-6.15625,0.96875
702,1695730247058,-0.28466797,-1.0647583,0.24432373,45.140625,-11.390625,2.53125
703,1695730247104,-0.35229492,-0.8987427,0.27166748,-29.015625,-25.140625,3.625
704,1695730247140,-0.2770996,-0.72540283,0.32147217,-21.515625,-11.125,-14.75
705,1695730247179,-0.43945312,-0.848938,0.26507568,-18.671875,10.796875,2.890625
706,1695730247257,-0.46606445,-1.0108032,0.2909546,4.25,8.84375,3.1875
707,1695730247259,-0.40576172,-1.0164185,0.34588623,12.46875,7.375,9.84375
708,1695730247299,-0.3449707,-1.0820923,0.34100342,-17.25,3.65625,3.171875
709,1695730247329,-0.26953125,-0.7962036,0.3600464,-5.875,-3.078125,-11.46875
710,1695730247380,-0.36547852,-0.7190552,0.37738037,-18.0,-0.421875,-9.90625
711,1695730247421,-0.46020508,-0.81378174,0.5031128,9.078125,11.796875,17.15625
712,1695730247479,-0.51220703,-1.0447388,0.09637451,-27.109375,-0.703125,17.484375
713,1695730247497,-0.3017578,-1.079895,0.4274292,16.421875,16.25,0.875
714,1695730247539,-0.21069336,-1.1421509,0.5531616,26.328125,9.640625,4.390625
715,1695730247569,-0.24169922,-0.7305298,0.32977295,-2.125,1.234375,-12.375
716,1695730247623,-0.2680664,-0.7005005,0.28729248,-6.578125,15.78125,-7.5
717,1695730247645,-0.21264648,-0.98809814,0.27752686,2.453125,4.203125,-8.984375
718,1695730247690,-0.29882812,-0.9890747,0.3319702,-1.421875,-19.015625,2.53125
719,1695730247737,-0.38623047,-0.9517212,0.28363037,-12.171875,-14.703125,13.078125
720,1695730247766,-0.40039062,-0.9507446,0.46014404,2.71875,8.25,7.65625
721,1695730247810,-0.49389648,-0.96466064,0.37469482,15.84375,8.0,1.234375
722,1695730247855,-0.36376953,-0.7839966,0.30267334,0.671875,8.109375,-4.609375
723,1695730247887,-0.14770508,-0.9607544,0.3270874,-1.34375,8.21875,-2.0625
724,1695730247930,-0.17260742,-1.0022583,0.42645264,-16.734375,-17.28125,-14.671875
725,1695730247959,-0.5102539,-0.8789673,0.25775146,-20.3125,-22.796875,2.015625
726,1695730248006,-0.5229492,-0.9031372,0.3534546,-4.90625,5.421875,9.65625
727,1695730248049,-0.36889648,-0.9517212,0.4406128,7.640625,5.5625,0.84375
728,1695730248079,-0.31811523,-0.9194946,0.3475952,10.484375,5.34375,-5.78125
729,1695730248123,-0.26000977,-0.92071533,0.32635498,6.65625,5.53125,1.265625
730,1695730248168,-0.23754883,-0.9248657,0.44378662,-1.265625,7.734375,-10.40625
731,1695730248198,-0.3972168,-0.8320923,0.3973999,6.109375,-14.21875,-1.640625
732,1695730248247,-0.5070801,-0.8496704,0.32489014,-4.96875,1.5,8.671875
733,1695730248274,-0.41918945,-0.85894775,0.4484253,-1.578125,15.75,8.0
734,1695730248319,-0.33691406,-0.9976196,0.4796753,8.09375,35.4375,-9.484375
735,1695730248364,-0.36499023,-0.9951782,0.3204956,24.0625,11.0,-5.796875
736,1695730248395,-0.21362305,-1.0127563,0.18695068,-35.0,-1.5625,-9.796875
737,1695730248442,-0.24389648,-0.77838135,0.37908936,31.375,-13.4375,-6.328125
738,1695730248486,-0.37060547,-0.9295044,0.23382568,12.3125,-14.140625,10.625
739,1695730248514,-0.49047852,-0.9109497,0.16571045,12.65625,-13.578125,23.765625
740,1695730248559,-0.42333984,-1.296936,0.2946167,49.90625,-3.5,18.453125
741,1695730248605,-0.44018555,-1.0557251,0.34197998,-36.21875,1.671875,-8.359375
742,1695730248633,-0.1340332,-0.7737427,0.34613037,-15.6875,15.9375,-21.171875
743,1695730248679,-0.31567383,-0.53863525,0.21282959,-11.703125,-16.015625,-4.828125
744,1695730248709,-0.34057617,-0.8838501,0.3571167,3.203125,11.515625,24.203125
745,1695730248754,-0.29760742,-1.2090454,0.20721436,-10.34375,-9.75,10.25
746,1695730248799,-0.2541504,-1.2161255,0.3649292,-16.203125,3.71875,0.015625
747,1695730248829,-0.34106445,-0.9651489,0.42132568,1.015625,-1.96875,-2.921875
748,1695730248876,-0.4404297,-0.6746216,0.29632568,-5.75,2.6875,-10.203125
749,1695730248904,-0.33129883,-0.7337036,0.29119873,3.546875,14.75,-1.046875
750,1695730248948,-0.14086914,-1.0025024,0.3961792,-18.421875,-4.03125,-2.796875
751,1695730248993,-0.35180664,-1.031311,0.385437,-12.625,-6.3125,4.046875
752,1695730249023,-0.46166992,-1.005188,0.40472412,-0.84375,2.0625,5.859375
753,1695730249069,-0.37329102,-0.94732666,0.38275146,14.890625,10.3125,-1.640625
754,1695730249113,-0.32763672,-0.8569946,0.3361206,5.5,8.234375,-4.328125
755,1695730249143,-0.24145508,-0.8555298,0.37322998,0.359375,8.15625,-3.3125
756,1695730249189,-0.3400879,-0.90093994,0.37542725,2.171875,0.75,-1.921875
757,1695730249219,-0.37280273,-0.8670044,0.27703857,-10.796875,-3.8125,15.828125
758,1695730249264,-0.27124023,-1.0999146,0.37127686,3.71875,9.703125,10.375
759,1695730249311,-0.27294922,-1.0149536,0.29730225,2.203125,-0.9375,-6.625
