,timestamp,accel_x,accel_y,accel_z,gyro_x,gyro_y,gyro_z
0,1695726144463,-0.53515625,-0.7390747,0.5578003,0.25,0.625,0.390625
1,1695726144506,-0.53344727,-0.7424927,0.5582886,0.09375,0.734375,0.375
2,1695726144544,-0.54248047,-0.74298096,0.5553589,0.109375,0.96875,0.5625
3,1695726144582,-0.53686523,-0.74224854,0.5621948,0.234375,0.734375,0.28125
4,1695726144643,-0.5373535,-0.7383423,0.5609741,0.53125,1.0,0.375
5,1695726144644,-0.5349121,-0.73883057,0.5570679,-0.046875,1.015625,0.15625
6,1695726144682,-0.53515625,-0.7463989,0.55926514,0.40625,0.5625,0.328125
7,1695726144722,-0.53271484,-0.7398071,0.5531616,0.21875,0.640625,0.203125
8,1695726144765,-0.53564453,-0.7359009,0.55389404,-0.265625,0.984375,0.03125
9,1695726144803,-0.52905273,-0.7371216,0.55755615,0.046875,1.109375,0.3125
10,1695726144842,-0.53222656,-0.74420166,0.55267334,-0.203125,0.578125,0.421875
11,1695726144882,-0.5344238,-0.7463989,0.557312,0.390625,0.9375,0.59375
12,1695726144922,-0.53515625,-0.7432251,0.5536499,0.296875,1.234375,0.265625
13,1695726144963,-0.53686523,-0.736145,0.55218506,0.015625,1.140625,0.28125
14,1695726145003,-0.53759766,-0.7481079,0.5482788,-0.046875,0.6875,0.484375
15,1695726145045,-0.53466797,-0.74713135,0.55218506,-0.015625,0.828125,0.484375
16,1695726145090,-0.5319824,-0.7439575,0.55804443,0.15625,1.171875,0.1875
17,1695726145122,-0.53930664,-0.7461548,0.54730225,-0.1875,0.890625,0.203125
18,1695726145162,-0.53344727,-0.7439575,0.54852295,0.0625,1.046875,0.53125
19,1695726145203,-0.5373535,-0.74298096,0.5516968,0.125,0.90625,0.1875
20,1695726145243,-0.53271484,-0.7456665,0.5487671,-0.03125,1.109375,0.125
21,1695726145283,-0.5366211,-0.7554321,0.54608154,-0.234375,0.75,0.21875
22,1695726145344,-0.532959,-0.7473755,0.5477905,-0.125,0.75,0.21875
23,1695726145364,-0.5361328,-0.7476196,0.54974365,-0.09375,0.890625,0.296875
24,1695726145406,-0.53881836,-0.75177,0.5524292,0.109375,1.015625,0.078125
25,1695726145443,-0.5336914,-0.7449341,0.5507202,-0.21875,1.140625,0.359375
26,1695726145485,-0.5358887,-0.7481079,0.5438843,-0.078125,1.328125,0.53125
27,1695726145524,-0.5283203,-0.7481079,0.5487671,-0.421875,1.28125,0.0625
28,1695726145564,-0.5402832,-0.7439575,0.55462646,0.1875,1.046875,0.046875
29,1695726145606,-0.5332031,-0.7437134,0.5465698,-0.640625,1.21875,0.03125
30,1695726145644,-0.5292969,-0.7564087,0.55023193,-0.21875,0.90625,-0.234375
31,1695726145686,-0.5317383,-0.74713135,0.5492554,-0.15625,1.140625,-0.03125
32,1695726145724,-0.5300293,-0.74224854,0.55023193,-0.671875,1.09375,0.0625
33,1695726145764,-0.53808594,-0.7449341,0.5475464,-0.453125,0.9375,0.0
34,1695726145805,-0.53222656,-0.75445557,0.5499878,-0.46875,0.6875,-0.203125
35,1695726145845,-0.53686523,-0.753479,0.5541382,0.015625,1.078125,0.078125
36,1695726145885,-0.52685547,-0.7473755,0.5507202,-0.390625,1.359375,0.171875
37,1695726145944,-0.53149414,-0.7449341,0.5553589,-0.421875,1.265625,-0.0625
38,1695726145965,-0.54052734,-0.7456665,0.55023193,-0.390625,0.59375,0.234375
39,1695726145985,-0.5332031,-0.74664307,0.5475464,-0.203125,0.984375,-0.03125
40,1695726146024,-0.53271484,-0.74664307,0.55145264,-0.328125,1.375,-0.015625
41,1695726146064,-0.53466797,-0.7559204,0.5477905,-0.453125,0.890625,0.15625
42,1695726146104,-0.5344238,-0.7498169,0.5519409,-0.875,1.046875,0.1875
43,1695726146144,-0.5317383,-0.74786377,0.55340576,-0.40625,1.078125,0.0625
44,1695726146184,-0.5349121,-0.7481079,0.54901123,-0.5625,1.140625,0.09375
45,1695726146224,-0.5371094,-0.74713135,0.54901123,-0.59375,1.09375,-0.109375
46,1695726146263,-0.5280762,-0.7424927,0.55633545,-0.59375,0.96875,-0.09375
47,1695726146303,-0.53564453,-0.7481079,0.5512085,-0.546875,1.234375,-0.1875
48,1695726146343,-0.5366211,-0.74542236,0.5516968,-0.671875,1.109375,0.0625
49,1695726146384,-0.53271484,-0.75250244,0.5512085,-0.640625,1.328125,0.09375
50,1695726146424,-0.532959,-0.7402954,0.55267334,-0.625,1.296875,0.03125
51,1695726146463,-0.5283203,-0.7490845,0.5536499,-1.0,1.375,-0.15625
52,1695726146507,-0.5332031,-0.74713135,0.56073,-0.234375,1.46875,-0.046875
53,1695726146542,-0.5263672,-0.74835205,0.5553589,-0.703125,1.578125,-0.15625
54,1695726146582,-0.5390625,-0.75177,0.55584717,-1.046875,1.609375,-0.390625
55,1695726146628,-0.5354004,-0.74542236,0.5565796,-0.4375,1.375,-0.25
56,1695726146666,-0.52783203,-0.7341919,0.55755615,-0.703125,1.5625,-0.296875
57,1695726146702,-0.5344238,-0.73443604,0.5560913,-0.9375,1.53125,-0.25
58,1695726146743,-0.53222656,-0.73883057,0.56048584,-1.125,1.453125,-0.421875
59,1695726146785,-0.53564453,-0.7390747,0.56073,-0.765625,0.953125,-0.359375
60,1695726146823,-0.5336914,-0.7437134,0.5619507,-0.765625,1.296875,0.1875
61,1695726146864,-0.53125,-0.7383423,0.5626831,-0.640625,1.8125,0.0
62,1695726146904,-0.53637695,-0.73101807,0.56781006,-0.578125,1.65625,-0.125
63,1695726146944,-0.53027344,-0.7420044,0.5621948,-0.6875,1.15625,0.15625
64,1695726146985,-0.5317383,-0.73809814,0.5687866,-0.9375,1.625,-0.03125
65,1695726147024,-0.5354004,-0.7337036,0.56292725,-0.640625,1.5625,-0.1875
66,1695726147064,-0.53515625,-0.7444458,0.5663452,-0.921875,1.265625,-0.015625
67,1695726147104,-0.52685547,-0.7337036,0.5651245,-0.875,1.421875,0.015625
68,1695726147144,-0.5292969,-0.7371216,0.5722046,-0.640625,1.28125,-0.109375
69,1695726147185,-0.5324707,-0.73516846,0.5687866,-0.796875,1.171875,-0.09375
70,1695726147224,-0.5324707,-0.73638916,0.5758667,-0.796875,1.390625,-0.109375
71,1695726147305,-0.532959,-0.73394775,0.57440186,-0.890625,1.53125,-0.078125
72,1695726147307,-0.52856445,-0.73394775,0.57147217,-0.609375,1.546875,-0.234375
73,1695726147326,-0.5354004,-0.736145,0.57073975,-0.578125,1.515625,-0.078125
74,1695726147406,-0.53344727,-0.72784424,0.5758667,-0.65625,1.296875,-0.078125
75,1695726147410,-0.5283203,-0.73565674,0.5795288,-0.671875,1.234375,-0.078125
76,1695726147447,-0.53100586,-0.73687744,0.57318115,-0.640625,1.28125,-0.21875
77,1695726147484,-0.5366211,-0.736145,0.5753784,-0.609375,1.5625,-0.109375
78,1695726147544,-0.53344727,-0.73516846,0.572937,-0.75,1.578125,-0.234375
79,1695726147566,-0.529541,-0.7283325,0.5795288,-0.5,1.171875,-0.140625
80,1695726147604,-0.53564453,-0.7305298,0.586853,-0.1875,0.859375,0.046875
81,1695726147647,-0.529541,-0.7354126,0.5668335,-0.828125,1.25,-0.28125
82,1695726147687,-0.53930664,-0.7317505,0.57489014,-1.1875,1.453125,-0.59375
83,1695726147723,-0.53222656,-0.7317505,0.5819702,-0.359375,1.359375,-0.4375
84,1695726147764,-0.5397949,-0.7258911,0.5751343,-0.25,1.5625,-0.109375
85,1695726147803,-0.5319824,-0.73272705,0.5753784,-0.703125,1.5625,-0.28125
86,1695726147844,-0.5319824,-0.73272705,0.5819702,-0.8125,0.9375,-0.328125
87,1695726147885,-0.53637695,-0.7312622,0.57977295,-0.703125,0.96875,0.0625
88,1695726147924,-0.5300293,-0.7312622,0.58465576,-0.296875,1.046875,0.234375
89,1695726147968,-0.52783203,-0.725647,0.5831909,-0.546875,1.078125,-0.25
90,1695726148003,-0.53515625,-0.72369385,0.5812378,-0.546875,1.078125,-0.09375
91,1695726148043,-0.53466797,-0.7312622,0.5817261,-0.375,0.84375,0.140625
92,1695726148086,-0.53344727,-0.72735596,0.58465576,-0.3125,1.1875,0.078125
93,1695726148124,-0.53344727,-0.72857666,0.57855225,-0.359375,1.296875,0.078125
94,1695726148167,-0.53271484,-0.7276001,0.5812378,-0.203125,1.078125,0.234375
95,1695726148204,-0.53344727,-0.72906494,0.5824585,-0.171875,1.0625,0.078125
96,1695726148245,-0.529541,-0.7319946,0.5807495,-0.265625,1.078125,-0.0625
97,1695726148304,-0.5253906,-0.725647,0.5812378,-0.40625,1.046875,-0.125
98,1695726148324,-0.5341797,-0.7300415,0.58221436,-0.546875,0.9375,0.046875
99,1695726148363,-0.5300293,-0.7246704,0.5873413,-0.171875,0.90625,0.0
100,1695726148405,-0.53393555,-0.7280884,0.5824585,-0.25,0.78125,0.0625
101,1695726148458,-0.5341797,-0.7263794,0.5878296,-0.265625,1.0,-0.03125
102,1695726148483,-0.5317383,-0.7214966,0.58758545,-0.09375,0.75,0.15625
103,1695726148524,-0.5437012,-0.7293091,0.58270264,0.125,0.671875,0.234375
104,1695726148565,-0.5344238,-0.736145,0.5807495,0.0625,0.46875,0.125
105,1695726148584,-0.5378418,-0.7295532,0.57928467,0.171875,0.34375,0.21875
106,1695726148645,-0.5300293,-0.7268677,0.5778198,0.359375,0.296875,0.390625
107,1695726148665,-0.54174805,-0.7280884,0.5805054,0.28125,0.4375,0.34375
108,1695726148703,-0.53930664,-0.73638916,0.57196045,0.078125,0.375,0.53125
109,1695726148744,-0.5358887,-0.7329712,0.5739136,0.296875,0.078125,0.578125
110,1695726148783,-0.53027344,-0.7246704,0.5790405,0.671875,0.203125,0.484375
111,1695726148823,-0.53100586,-0.73272705,0.5704956,0.03125,0.21875,0.09375
112,1695726148864,-0.5354004,-0.7295532,0.5717163,-0.09375,0.703125,0.109375
113,1695726148904,-0.5397949,-0.7288208,0.5741577,0.375,0.390625,0.390625
114,1695726148944,-0.5402832,-0.7307739,0.57147217,0.125,0.390625,0.3125
115,1695726149005,-0.5366211,-0.7307739,0.5656128,0.109375,0.765625,0.1875
116,1695726149047,-0.5358887,-0.7366333,0.56536865,0.140625,0.3125,0.453125
117,1695726149064,-0.5354004,-0.7402954,0.5709839,0.03125,0.03125,0.484375
118,1695726149104,-0.53515625,-0.73931885,0.5648804,0.296875,0.625,0.625
119,1695726149145,-0.5341797,-0.7268677,0.56365967,0.234375,0.90625,0.390625
120,1695726149184,-0.5385742,-0.7366333,0.56829834,0.375,0.578125,0.609375
121,1695726149223,-0.53466797,-0.7373657,0.56463623,0.234375,0.171875,0.65625
122,1695726149264,-0.53344727,-0.7341919,0.56903076,0.0,0.765625,0.328125
123,1695726149303,-0.53344727,-0.737854,0.5634155,0.328125,0.71875,0.390625
124,1695726149343,-0.5319824,-0.74542236,0.5626831,0.0625,0.375,0.390625
125,1695726149383,-0.53149414,-0.7468872,0.55755615,-0.0625,0.359375,0.453125
126,1695726149423,-0.52905273,-0.7456665,0.55804443,-0.03125,0.328125,0.109375
127,1695726149466,-0.52734375,-0.74176025,0.55804443,-0.015625,0.609375,0.234375
128,1695726149505,-0.5422363,-0.7427368,0.55462646,-0.21875,0.546875,0.234375
129,1695726149545,-0.5383301,-0.7324829,0.5614624,-0.25,0.40625,0.3125
130,1695726149584,-0.53759766,-0.73931885,0.5543823,0.015625,0.671875,0.203125
131,1695726149624,-0.53637695,-0.74176025,0.55584717,0.09375,0.59375,0.421875
132,1695726149665,-0.53466797,-0.73931885,0.5553589,-0.03125,0.9375,0.359375
133,1695726149704,-0.53222656,-0.7449341,0.55389404,0.0,1.078125,0.234375
134,1695726149744,-0.5395508,-0.74542236,0.5602417,0.125,1.171875,0.296875
135,1695726149786,-0.53759766,-0.7449341,0.5536499,-0.28125,1.03125,0.125
136,1695726149824,-0.5349121,-0.7485962,0.5602417,0.21875,0.921875,0.140625
137,1695726149864,-0.53881836,-0.74664307,0.54901123,-0.296875,0.9375,-0.078125
138,1695726149883,-0.53100586,-0.75006104,0.5621948,-0.34375,0.890625,-0.0625
139,1695726149924,-0.54174805,-0.7432251,0.55682373,0.09375,0.734375,-0.03125
140,1695726149965,-0.5397949,-0.74053955,0.5602417,-0.109375,0.984375,0.03125
141,1695726150003,-0.5371094,-0.73565674,0.5512085,0.0625,0.90625,0.109375
142,1695726150044,-0.53222656,-0.74102783,0.55340576,-0.171875,0.578125,0.078125
143,1695726150084,-0.5344238,-0.74542236,0.55389404,-0.1875,0.4375,0.015625
144,1695726150124,-0.53930664,-0.7461548,0.5582886,0.1875,0.890625,0.515625
145,1695726150166,-0.5358887,-0.741272,0.5512085,-0.296875,1.015625,0.125
146,1695726150204,-0.5444336,-0.7451782,0.55877686,0.25,0.78125,0.28125
147,1695726150245,-0.5415039,-0.74591064,0.55145264,-0.203125,0.5,0.203125
148,1695726150285,-0.5341797,-0.74713135,0.5507202,-0.265625,1.234375,0.0625
149,1695726150324,-0.5332031,-0.7371216,0.54681396,-0.1875,1.234375,0.171875
150,1695726150367,-0.5336914,-0.7476196,0.5477905,-0.703125,1.15625,0.015625
151,1695726150404,-0.5378418,-0.74835205,0.5529175,-0.46875,0.953125,0.078125
152,1695726150445,-0.5341797,-0.7437134,0.555603,-0.390625,1.109375,-0.03125
153,1695726150484,-0.54052734,-0.7402954,0.559021,-0.3125,1.15625,-0.046875
154,1695726150525,-0.5397949,-0.74176025,0.55340576,-0.625,0.96875,-0.09375
155,1695726150566,-0.54174805,-0.74224854,0.55755615,-0.703125,0.890625,0.09375
156,1695726150605,-0.53222656,-0.74176025,0.55389404,-0.640625,1.203125,0.125
157,1695726150644,-0.5378418,-0.736145,0.55682373,-0.203125,1.109375,0.03125
158,1695726150703,-0.5395508,-0.73931885,0.55804443,-0.5625,1.234375,0.015625
159,1695726150726,-0.5361328,-0.74884033,0.54974365,-0.765625,1.421875,0.09375
160,1695726150764,-0.5366211,-0.7415161,0.56170654,-0.625,1.5625,0.015625
161,1695726150824,-0.5395508,-0.73638916,0.5602417,0.03125,1.765625,0.171875
162,1695726150844,-0.53222656,-0.739563,0.55584717,-0.890625,1.703125,-0.359375
163,1695726150885,-0.5415039,-0.7424927,0.56243896,-0.78125,1.53125,-0.34375
164,1695726150925,-0.5383301,-0.7383423,0.55804443,-0.71875,1.28125,-0.390625
165,1695726150964,-0.53564453,-0.7385864,0.55877686,-0.90625,1.53125,-0.40625
166,1695726151004,-0.5344238,-0.73394775,0.55999756,-1.203125,2.171875,-0.703125
167,1695726151044,-0.5444336,-0.73565674,0.5680542,-0.875,1.421875,-0.390625
168,1695726151085,-0.5358887,-0.7354126,0.56365967,-0.515625,1.40625,0.0625
169,1695726151124,-0.53222656,-0.73687744,0.5680542,-0.53125,1.546875,0.203125
170,1695726151165,-0.53808594,-0.7307739,0.5614624,-0.8125,1.578125,-0.15625
171,1695726151184,-0.5371094,-0.73223877,0.5673218,-0.78125,1.328125,-0.03125
172,1695726151225,-0.5407715,-0.73638916,0.57196045,-0.65625,1.21875,0.03125
173,1695726151264,-0.53466797,-0.7312622,0.57025146,-0.671875,1.875,-0.171875
174,1695726151307,-0.5395508,-0.7337036,0.57318115,-0.296875,1.296875,0.0625
175,1695726151343,-0.53222656,-0.7312622,0.5661011,-0.84375,0.890625,0.171875
176,1695726151384,-0.5373535,-0.7383423,0.56536865,-0.734375,1.328125,0.015625
177,1695726151424,-0.5354004,-0.7359009,0.5685425,-0.453125,1.421875,-0.09375
178,1695726151463,-0.5390625,-0.7307739,0.5697632,-0.703125,1.125,0.0
179,1695726151504,-0.5371094,-0.73272705,0.5753784,-0.796875,1.296875,0.078125
180,1695726151588,-0.5358887,-0.73443604,0.5722046,-0.75,1.375,-0.15625
181,1695726151592,-0.5361328,-0.7300415,0.57318115,-0.609375,1.5625,-0.28125
182,1695726151625,-0.5395508,-0.7359009,0.572937,-0.671875,1.765625,-0.09375
183,1695726151664,-0.5332031,-0.7293091,0.57025146,-0.46875,1.65625,-0.25
184,1695726151706,-0.5373535,-0.7288208,0.571228,-0.671875,1.46875,-0.140625
185,1695726151765,-0.53271484,-0.7334595,0.57244873,-0.734375,1.34375,-0.140625
186,1695726151784,-0.5336914,-0.7293091,0.57855225,-0.53125,1.15625,0.015625
187,1695726151822,-0.53759766,-0.73101807,0.5692749,-0.484375,1.125,-0.140625
188,1695726151862,-0.53125,-0.73321533,0.56951904,-1.296875,1.3125,-0.578125
189,1695726151904,-0.5361328,-0.7337036,0.57733154,-1.125,0.84375,-0.375
190,1695726151943,-0.5397949,-0.7354126,0.5783081,-0.703125,1.03125,-0.28125
191,1695726151984,-0.5378418,-0.7258911,0.57733154,-0.703125,1.328125,-0.359375
192,1695726152024,-0.5371094,-0.7268677,0.5775757,-0.9375,1.359375,-0.375
193,1695726152065,-0.53564453,-0.72369385,0.57684326,-0.65625,1.171875,-0.078125
194,1695726152105,-0.5344238,-0.7217407,0.5844116,-0.1875,1.171875,0.21875
195,1695726152144,-0.53759766,-0.7293091,0.58221436,-0.375,1.4375,0.125
196,1695726152204,-0.54418945,-0.7283325,0.574646,-0.609375,1.40625,-0.265625
197,1695726152245,-0.5397949,-0.72662354,0.5844116,-0.15625,1.09375,-0.0625
198,1695726152264,-0.5397949,-0.72613525,0.5817261,-0.34375,1.171875,0.125
199,1695726152304,-0.53466797,-0.72979736,0.5805054,-0.453125,1.203125,0.125
200,1695726152344,-0.53759766,-0.72320557,0.5844116,-0.21875,1.234375,0.109375
201,1695726152388,-0.532959,-0.72491455,0.5848999,-0.484375,1.046875,0.203125
202,1695726152426,-0.5390625,-0.723938,0.5861206,-0.296875,0.921875,0.1875
203,1695726152485,-0.5407715,-0.723938,0.57733154,0.0625,0.65625,0.21875
204,1695726152488,-0.5385742,-0.7300415,0.57977295,-0.015625,0.484375,0.15625
205,1695726152542,-0.5437012,-0.72906494,0.58343506,0.109375,0.265625,0.203125
206,1695726152563,-0.5402832,-0.72857666,0.5800171,0.09375,0.3125,0.28125
207,1695726152603,-0.5395508,-0.73028564,0.5783081,0.28125,0.59375,0.140625
208,1695726152644,-0.54248047,-0.7312622,0.5778198,0.421875,-0.046875,0.59375
209,1695726152684,-0.5410156,-0.72979736,0.5726929,0.265625,0.28125,0.484375
210,1695726152726,-0.5432129,-0.7280884,0.57244873,0.125,0.484375,0.265625
211,1695726152783,-0.5449219,-0.7271118,0.57366943,0.34375,0.515625,0.46875
212,1695726152802,-0.53466797,-0.7305298,0.576355,0.28125,-0.015625,0.453125
213,1695726152844,-0.53564453,-0.7324829,0.57489014,0.640625,0.296875,0.390625
214,1695726152887,-0.53344727,-0.7334595,0.5673218,-0.125,0.578125,0.171875
215,1695726152944,-0.54052734,-0.73321533,0.5717163,-0.21875,0.65625,0.25
216,1695726152964,-0.5427246,-0.73101807,0.57196045,0.5625,0.1875,0.25
217,1695726153004,-0.53930664,-0.7268677,0.56243896,-0.1875,0.09375,0.109375
218,1695726153042,-0.5354004,-0.7276001,0.5639038,-0.25,0.78125,0.15625
219,1695726153086,-0.5395508,-0.7354126,0.5631714,-0.125,0.3125,0.109375
220,1695726153123,-0.54296875,-0.7415161,0.57073975,0.078125,-0.09375,0.53125
221,1695726153204,-0.53637695,-0.737854,0.5639038,0.28125,0.53125,0.484375
222,1695726153206,-0.5371094,-0.7317505,0.5631714,-0.0625,1.0625,0.328125
223,1695726153265,-0.5407715,-0.73394775,0.56463623,0.203125,0.640625,0.25
224,1695726153284,-0.5439453,-0.7371216,0.56414795,0.15625,0.515625,0.484375
225,1695726153344,-0.53881836,-0.73516846,0.55999756,-0.078125,0.6875,0.171875
226,1695726153364,-0.54174805,-0.7349243,0.5643921,0.109375,0.90625,0.28125
227,1695726153409,-0.5349121,-0.73516846,0.55755615,-0.015625,0.78125,0.34375
228,1695726153445,-0.53125,-0.7329712,0.5565796,0.03125,0.4375,0.28125
229,1695726153485,-0.5385742,-0.73931885,0.5582886,0.125,0.6875,0.390625
230,1695726153524,-0.53393555,-0.73687744,0.56658936,0.90625,1.125,0.515625
231,1695726153565,-0.5390625,-0.7383423,0.5570679,0.15625,1.328125,0.296875
232,1695726153606,-0.54003906,-0.74346924,0.55145264,-0.140625,0.890625,0.234375
233,1695726153648,-0.5397949,-0.74176025,0.56048584,-0.234375,0.578125,0.265625
234,1695726153686,-0.53930664,-0.7390747,0.55877686,-0.4375,0.859375,0.328125
235,1695726153724,-0.5410156,-0.7398071,0.56463623,-0.25,0.625,0.34375
236,1695726153805,-0.5341797,-0.7390747,0.56048584,-0.140625,0.734375,0.140625
237,1695726153807,-0.54296875,-0.7432251,0.56048584,-0.03125,0.9375,0.25
238,1695726153822,-0.53271484,-0.73883057,0.56121826,0.234375,1.296875,0.453125
239,1695726153864,-0.5361328,-0.74176025,0.5465698,-0.4375,1.34375,-0.015625
240,1695726153925,-0.5390625,-0.7473755,0.55389404,-0.421875,0.828125,0.125
241,1695726153944,-0.5358887,-0.7427368,0.559021,-0.046875,0.71875,-0.265625
242,1695726154006,-0.529541,-0.73394775,0.55682373,-0.3125,0.890625,-0.28125
243,1695726154023,-0.5344238,-0.7337036,0.55584717,-0.6875,0.703125,-0.203125
244,1695726154064,-0.54418945,-0.7444458,0.5578003,-0.8125,0.21875,-0.25
245,1695726154104,-0.53759766,-0.7373657,0.56073,-0.515625,0.953125,-0.078125
246,1695726154144,-0.5354004,-0.7439575,0.56463623,-0.328125,1.125,0.125
247,1695726154184,-0.5407715,-0.7280884,0.55804443,-0.59375,1.3125,-0.140625
248,1695726154224,-0.54125977,-0.7385864,0.55389404,-0.453125,0.96875,0.015625
249,1695726154265,-0.5415039,-0.7432251,0.55804443,-0.765625,0.703125,-0.03125
250,1695726154303,-0.5361328,-0.73321533,0.5602417,-0.640625,1.484375,-0.1875
251,1695726154345,-0.5395508,-0.7354126,0.5595093,-0.625,1.125,-0.203125
252,1695726154384,-0.54125977,-0.73883057,0.5661011,-0.640625,1.015625,-0.09375
253,1695726154425,-0.54174805,-0.73150635,0.5661011,-0.359375,1.078125,0.09375
254,1695726154464,-0.5354004,-0.73516846,0.55926514,-0.703125,0.90625,-0.078125
255,1695726154504,-0.53222656,-0.7329712,0.5585327,-0.75,1.125,-0.140625
256,1695726154544,-0.5456543,-0.73516846,0.56414795,-0.53125,1.375,-0.03125
257,1695726154583,-0.54589844,-0.72979736,0.5643921,-0.671875,1.359375,-0.09375
258,1695726154623,-0.5402832,-0.73760986,0.5609741,-0.8125,1.328125,-0.296875
259,1695726154664,-0.54418945,-0.7324829,0.56536865,-0.640625,1.3125,-0.375
260,1695726154707,-0.5373535,-0.7300415,0.5668335,-0.671875,1.28125,-0.03125
261,1695726154746,-0.54003906,-0.7317505,0.56903076,-0.71875,1.40625,0.0
262,1695726154784,-0.54345703,-0.7293091,0.56170654,-0.859375,1.328125,-0.1875
263,1695726154824,-0.5444336,-0.7295532,0.56414795,-0.59375,1.25,-0.140625
264,1695726154864,-0.53637695,-0.73809814,0.5692749,-0.15625,1.234375,-0.03125
265,1695726154906,-0.5361328,-0.7305298,0.57025146,-0.53125,1.515625,-0.40625
266,1695726154964,-0.54541016,-0.73223877,0.5661011,-1.1875,1.515625,-0.59375
267,1695726154984,-0.5444336,-0.73638916,0.5722046,-0.40625,1.296875,-0.5
268,1695726155025,-0.5415039,-0.7276001,0.5726929,-0.59375,1.578125,-0.1875
269,1695726155084,-0.5373535,-0.7288208,0.572937,-0.484375,1.890625,-0.328125
270,1695726155104,-0.54174805,-0.7305298,0.5692749,-0.59375,1.96875,-0.3125
271,1695726155124,-0.5383301,-0.7317505,0.57244873,-0.578125,1.125,-0.328125
272,1695726155165,-0.5402832,-0.73394775,0.5739136,-0.25,1.078125,0.0625
273,1695726155205,-0.5371094,-0.72491455,0.5770874,-0.671875,1.484375,-0.015625
274,1695726155244,-0.54541016,-0.72198486,0.56536865,-0.828125,1.53125,-0.34375
275,1695726155285,-0.54663086,-0.7312622,0.57440186,-0.234375,0.984375,-0.03125
276,1695726155344,-0.54003906,-0.7263794,0.57244873,-0.34375,1.140625,0.078125
277,1695726155364,-0.5390625,-0.7276001,0.57366943,-0.6875,1.453125,-0.046875
278,1695726155403,-0.54003906,-0.7349243,0.58221436,-0.46875,1.296875,0.03125
279,1695726155444,-0.54125977,-0.7312622,0.5717163,-0.515625,1.25,-0.078125
280,1695726155484,-0.5378418,-0.72369385,0.5800171,-0.484375,1.140625,-0.09375
281,1695726155524,-0.54467773,-0.72247314,0.57489014,-0.375,1.234375,-0.078125
282,1695726155565,-0.54174805,-0.7258911,0.574646,-0.625,1.140625,0.078125
283,1695726155603,-0.54541016,-0.7227173,0.5734253,-0.484375,1.234375,-0.015625
284,1695726155645,-0.5415039,-0.7214966,0.57366943,-0.5,1.09375,-0.078125
285,1695726155685,-0.54663086,-0.7258911,0.5775757,-0.390625,1.1875,0.046875
286,1695726155724,-0.5366211,-0.72784424,0.5770874,-0.578125,1.0,0.03125
287,1695726155766,-0.5439453,-0.72003174,0.5775757,-0.359375,1.046875,0.09375
288,1695726155804,-0.5410156,-0.72125244,0.5783081,-0.515625,1.046875,-0.046875
289,1695726155848,-0.546875,-0.7246704,0.58343506,-0.390625,1.125,-0.09375
290,1695726155884,-0.5378418,-0.72442627,0.57611084,-0.328125,0.859375,-0.109375
291,1695726155926,-0.5449219,-0.7173462,0.57733154,-0.453125,1.03125,0.0625
292,1695726155986,-0.546875,-0.7263794,0.5778198,-0.296875,1.296875,-0.03125
293,1695726156005,-0.5410156,-0.7263794,0.5805054,-0.40625,1.25,0.125
294,1695726156045,-0.5427246,-0.72442627,0.5844116,0.03125,0.890625,0.25
295,1695726156084,-0.54345703,-0.723938,0.5753784,-0.265625,0.828125,0.0625
296,1695726156124,-0.5336914,-0.7263794,0.5765991,-0.546875,1.09375,-0.3125
297,1695726156163,-0.5463867,-0.723938,0.5819702,-0.171875,0.78125,0.03125
298,1695726156202,-0.546875,-0.7210083,0.58026123,0.0625,0.453125,0.171875
299,1695726156245,-0.5449219,-0.7227173,0.5831909,0.046875,0.6875,0.140625
300,1695726156284,-0.54125977,-0.72613525,0.5775757,-0.265625,0.515625,0.078125
301,1695726156365,-0.5437012,-0.7258911,0.5770874,0.15625,0.21875,0.359375
302,1695726156368,-0.54248047,-0.7283325,0.58148193,0.46875,0.328125,0.609375
303,1695726156404,-0.54296875,-0.725647,0.5783081,0.09375,0.5,0.21875
304,1695726156424,-0.54589844,-0.71832275,0.57366943,0.125,0.609375,0.234375
305,1695726156464,-0.5463867,-0.7312622,0.5741577,0.25,0.09375,0.46875
306,1695726156503,-0.548584,-0.7268677,0.57855225,0.234375,0.296875,0.46875
307,1695726156545,-0.5476074,-0.7241821,0.5692749,-0.09375,0.796875,0.328125
308,1695726156585,-0.5402832,-0.723938,0.56536865,0.375,0.28125,0.421875
309,1695726156624,-0.5444336,-0.7337036,0.5697632,0.21875,0.1875,0.46875
310,1695726156667,-0.5415039,-0.73028564,0.5680542,0.015625,0.421875,0.234375
311,1695726156704,-0.54467773,-0.73516846,0.5685425,0.15625,0.53125,0.34375
312,1695726156764,-0.54248047,-0.7319946,0.5639038,0.109375,0.359375,0.390625
313,1695726156784,-0.54467773,-0.7329712,0.5685425,0.09375,0.53125,0.5
314,1695726156824,-0.54418945,-0.7324829,0.56829834,0.078125,0.40625,0.46875
315,1695726156870,-0.545166,-0.73101807,0.56121826,-0.125,0.4375,0.28125
316,1695726156904,-0.54541016,-0.736145,0.56170654,-0.078125,0.609375,0.484375
317,1695726156945,-0.5437012,-0.737854,0.5597534,-0.078125,0.484375,0.265625
318,1695726156983,-0.5419922,-0.736145,0.56243896,-0.015625,0.46875,0.234375
319,1695726157024,-0.5407715,-0.73272705,0.5595093,-0.046875,0.796875,0.25
320,1695726157063,-0.5419922,-0.73150635,0.55755615,-0.09375,0.65625,0.234375
321,1695726157103,-0.54296875,-0.72735596,0.55389404,-0.421875,0.71875,0.484375
322,1695726157145,-0.54663086,-0.7415161,0.5529175,-0.421875,0.71875,0.328125
323,1695726157185,-0.54418945,-0.7324829,0.55682373,-0.140625,1.234375,0.046875
324,1695726157223,-0.5500488,-0.7329712,0.5651245,-0.75,1.28125,-0.171875
325,1695726157264,-0.55078125,-0.7407837,0.56658936,-0.234375,1.0625,-0.15625
326,1695726157304,-0.5480957,-0.73150635,0.56463623,-0.203125,0.96875,-0.078125
327,1695726157345,-0.54125977,-0.7276001,0.557312,-0.09375,1.078125,0.09375
328,1695726157403,-0.54174805,-0.7341919,0.56463623,0.453125,0.9375,-0.125
329,1695726157424,-0.54833984,-0.7346802,0.56414795,0.578125,0.734375,0.21875
330,1695726157464,-0.5422363,-0.7349243,0.56048584,0.953125,1.125,0.46875
331,1695726157504,-0.545166,-0.73760986,0.5578003,0.625,1.15625,0.578125
332,1695726157565,-0.5439453,-0.72784424,0.55755615,0.5,0.640625,0.25
333,1695726157584,-0.55078125,-0.7398071,0.5565796,0.328125,0.703125,0.5625
334,1695726157625,-0.5456543,-0.74176025,0.5595093,0.296875,0.65625,0.453125
335,1695726157707,-0.54418945,-0.7373657,0.5512085,-0.0625,0.921875,0.296875
336,1695726157711,-0.53881836,-0.73638916,0.5494995,-0.171875,0.625,0.390625
337,1695726157723,-0.54663086,-0.7444458,0.5531616,0.09375,0.609375,0.5625
338,1695726157784,-0.54663086,-0.74005127,0.55755615,0.125,0.78125,0.578125
339,1695726157824,-0.53808594,-0.7354126,0.54559326,-0.875,0.46875,0.078125
340,1695726157905,-0.53881836,-0.739563,0.5453491,-0.515625,0.609375,0.15625
341,1695726157907,-0.5373535,-0.74468994,0.55633545,-0.296875,0.796875,0.1875
342,1695726157923,-0.5427246,-0.7359009,0.54974365,-0.390625,1.0,-0.046875
343,1695726157964,-0.54296875,-0.73883057,0.55511475,-0.25,0.984375,0.125
344,1695726158004,-0.5397949,-0.737854,0.5536499,-0.28125,1.171875,0.0625
345,1695726158044,-0.54296875,-0.73760986,0.55218506,-0.46875,1.21875,0.046875
346,1695726158105,-0.5419922,-0.73883057,0.55145264,-0.5,1.234375,-0.0625
347,1695726158125,-0.5397949,-0.741272,0.55096436,-0.421875,1.125,0.0
348,1695726158171,-0.5437012,-0.7385864,0.557312,0.078125,1.15625,-0.140625
349,1695726158202,-0.5397949,-0.72735596,0.5475464,-0.390625,1.4375,0.0625
350,1695726158244,-0.54663086,-0.7346802,0.5524292,-0.640625,1.234375,-0.09375
351,1695726158284,-0.5461426,-0.74224854,0.55633545,-0.109375,0.859375,0.015625
352,1695726158324,-0.5444336,-0.73101807,0.55389404,-0.828125,1.328125,-0.21875
353,1695726158385,-0.54052734,-0.72906494,0.5531616,-0.53125,1.21875,-0.03125
354,1695726158403,-0.54418945,-0.7359009,0.56073,-0.59375,0.9375,-0.09375
355,1695726158449,-0.5461426,-0.739563,0.5578003,-0.859375,0.765625,-0.078125
356,1695726158485,-0.54345703,-0.7383423,0.5529175,-0.3125,1.21875,0.265625
357,1695726158523,-0.5439453,-0.7402954,0.557312,-0.59375,1.53125,-0.046875
358,1695726158584,-0.54785156,-0.72735596,0.5643921,-0.4375,1.65625,-0.21875
359,1695726158604,-0.5473633,-0.73809814,0.555603,-0.328125,1.078125,0.09375
360,1695726158645,-0.5419922,-0.73883057,0.56073,-0.390625,1.1875,-0.171875
361,1695726158684,-0.54589844,-0.7317505,0.5578003,-0.578125,1.859375,-0.25
362,1695726158725,-0.54418945,-0.73931885,0.5531616,-0.625,1.421875,-0.078125
363,1695726158765,-0.546875,-0.7324829,0.55462646,-0.625,1.25,0.015625
364,1695726158804,-0.54296875,-0.73223877,0.55926514,-0.6875,1.21875,-0.265625
365,1695726158864,-0.5419922,-0.736145,0.55877686,-0.828125,1.359375,-0.4375
366,1695726158883,-0.5515137,-0.7295532,0.57318115,-1.03125,1.5625,-0.0625
367,1695726158923,-0.546875,-0.7334595,0.56829834,-0.59375,1.421875,0.078125
368,1695726158985,-0.53881836,-0.7366333,0.5602417,-0.75,1.421875,-0.203125
369,1695726159026,-0.545166,-0.7324829,0.56463623,-0.703125,1.546875,-0.078125
370,1695726159027,-0.5498047,-0.7334595,0.5704956,-0.75,1.328125,-0.078125
371,1695726159063,-0.53881836,-0.73028564,0.56365967,-0.5,1.421875,-0.171875
372,1695726159104,-0.5407715,-0.7319946,0.5687866,-0.390625,1.609375,-0.21875
373,1695726159146,-0.5419922,-0.7258911,0.56243896,-0.390625,1.671875,0.015625
374,1695726159183,-0.54248047,-0.7271118,0.57196045,-0.453125,1.328125,0.046875
375,1695726159226,-0.5427246,-0.725647,0.5619507,-0.390625,1.234375,0.046875
376,1695726159266,-0.5410156,-0.7307739,0.56170654,-1.328125,1.4375,-0.53125
377,1695726159324,-0.54467773,-0.72857666,0.5722046,-1.03125,1.234375,-0.640625
378,1695726159346,-0.5449219,-0.7317505,0.5717163,-0.859375,1.203125,-0.3125
379,1695726159384,-0.53637695,-0.72247314,0.5651245,-1.078125,1.453125,-0.4375
380,1695726159423,-0.5402832,-0.7276001,0.5700073,-1.046875,1.4375,-0.25
381,1695726159466,-0.54589844,-0.7283325,0.576355,-0.609375,1.34375,0.140625
382,1695726159503,-0.5444336,-0.72320557,0.57733154,-0.28125,1.640625,0.328125
383,1695726159546,-0.5397949,-0.7258911,0.5739136,-0.546875,1.421875,0.171875
384,1695726159585,-0.5385742,-0.72052,0.57318115,-0.671875,1.3125,-0.34375
385,1695726159626,-0.546875,-0.7202759,0.57684326,-0.4375,1.375,-0.15625
386,1695726159664,-0.5456543,-0.7263794,0.5775757,-0.34375,1.078125,0.125
387,1695726159703,-0.5437012,-0.72003174,0.5787964,-0.546875,1.671875,-0.109375
388,1695726159748,-0.5427246,-0.7283325,0.5790405,-0.4375,1.28125,-0.03125
389,1695726159784,-0.5437012,-0.72491455,0.5795288,-0.46875,1.34375,0.203125
390,1695726159824,-0.5402832,-0.72662354,0.57562256,-0.53125,1.265625,0.0625
391,1695726159886,-0.54003906,-0.72125244,0.57489014,-0.5,1.0625,0.015625
392,1695726159905,-0.5456543,-0.7241821,0.57928467,-0.515625,0.984375,0.078125
393,1695726159964,-0.5395508,-0.7251587,0.5739136,-0.5625,1.140625,-0.078125
394,1695726159985,-0.54248047,-0.71881104,0.5751343,-0.46875,1.109375,-0.046875
395,1695726160024,-0.5427246,-0.7180786,0.576355,-0.390625,0.921875,-0.109375
396,1695726160067,-0.5419922,-0.7180786,0.58221436,-0.375,1.0625,-0.0625
397,1695726160104,-0.54174805,-0.7214966,0.5775757,-0.484375,1.078125,-0.046875
398,1695726160143,-0.54248047,-0.7197876,0.5812378,-0.5,1.015625,-0.09375
399,1695726160184,-0.54418945,-0.7173462,0.5841675,-0.25,1.0625,0.09375
400,1695726160226,-0.5390625,-0.72198486,0.5819702,-0.3125,1.15625,0.09375
401,1695726160265,-0.5422363,-0.7214966,0.5758667,-0.625,1.0,-0.015625
402,1695726160304,-0.53808594,-0.72076416,0.5841675,-0.546875,1.3125,0.0
403,1695726160345,-0.5505371,-0.72198486,0.5817261,-0.46875,0.78125,-0.03125
404,1695726160364,-0.5439453,-0.72198486,0.58148193,0.21875,0.8125,0.21875
405,1695726160403,-0.54345703,-0.72076416,0.5829468,-0.828125,1.09375,-0.203125
406,1695726160445,-0.5461426,-0.725647,0.5824585,-0.59375,1.1875,-0.296875
407,1695726160484,-0.5432129,-0.7217407,0.58514404,-0.3125,1.09375,-0.109375
408,1695726160526,-0.54174805,-0.7161255,0.58026123,-0.46875,1.140625,0.0
409,1695726160566,-0.5463867,-0.7210083,0.5807495,-0.6875,1.15625,-0.265625
410,1695726160604,-0.54589844,-0.725647,0.58636475,-0.328125,0.875,-0.0625
411,1695726160644,-0.5444336,-0.71710205,0.5878296,-0.171875,0.953125,0.25
412,1695726160682,-0.5437012,-0.71539307,0.59198,0.0,0.953125,0.359375
413,1695726160724,-0.5422363,-0.7190552,0.58514404,-0.125,0.578125,0.078125
414,1695726160764,-0.5432129,-0.7217407,0.5841675,-0.046875,0.3125,0.203125
415,1695726160824,-0.54785156,-0.7197876,0.58270264,0.265625,0.234375,0.203125
416,1695726160844,-0.5427246,-0.7217407,0.5819702,0.171875,0.6875,0.328125
417,1695726160884,-0.54345703,-0.72198486,0.5778198,0.265625,0.3125,0.46875
418,1695726160924,-0.5432129,-0.72369385,0.56903076,0.21875,0.34375,0.4375
419,1695726160969,-0.5476074,-0.723938,0.5758667,-0.078125,0.078125,0.3125
420,1695726161003,-0.5437012,-0.7202759,0.57440186,0.046875,0.375,0.296875
421,1695726161043,-0.54541016,-0.7258911,0.5783081,-0.046875,0.109375,0.21875
422,1695726161083,-0.54663086,-0.72247314,0.57318115,-0.140625,0.296875,0.359375
423,1695726161122,-0.54663086,-0.72491455,0.576355,0.125,0.4375,0.234375
424,1695726161165,-0.5463867,-0.7217407,0.57196045,0.140625,0.5625,0.5
425,1695726161204,-0.5527344,-0.7258911,0.56951904,0.0,0.65625,0.5625
426,1695726161244,-0.55200195,-0.722229,0.5704956,0.09375,0.375,0.359375
427,1695726161283,-0.5463867,-0.72735596,0.57244873,0.109375,0.421875,0.46875
428,1695726161326,-0.5461426,-0.72320557,0.5692749,0.171875,0.625,0.359375
429,1695726161363,-0.54663086,-0.73687744,0.5634155,-0.15625,0.546875,0.328125
430,1695726161403,-0.5456543,-0.7263794,0.5700073,0.015625,0.71875,0.546875
431,1695726161444,-0.545166,-0.7324829,0.5673218,0.078125,0.578125,0.515625
432,1695726161484,-0.5515137,-0.7268677,0.56585693,0.59375,0.734375,0.40625
433,1695726161524,-0.5407715,-0.7293091,0.56414795,-0.578125,1.203125,0.046875
434,1695726161586,-0.55078125,-0.72857666,0.572937,0.078125,0.953125,0.25
435,1695726161603,-0.55249023,-0.7312622,0.5680542,0.171875,0.546875,0.203125
436,1695726161625,-0.5493164,-0.72491455,0.56536865,-0.140625,0.5625,0.140625
437,1695726161665,-0.5463867,-0.7288208,0.5582886,-0.15625,0.828125,0.09375
438,1695726161705,-0.54541016,-0.7295532,0.56536865,-0.03125,0.484375,0.28125
439,1695726161745,-0.54589844,-0.72784424,0.5663452,-0.203125,0.578125,0.359375
440,1695726161784,-0.54418945,-0.7317505,0.56121826,0.140625,0.734375,0.515625
441,1695726161826,-0.54711914,-0.725647,0.5663452,0.234375,0.8125,0.15625
442,1695726161884,-0.55249023,-0.72979736,0.5651245,0.421875,0.59375,0.40625
443,1695726161908,-0.545166,-0.7307739,0.56365967,-0.21875,0.609375,0.3125
444,1695726161944,-0.54785156,-0.73565674,0.5597534,0.1875,1.171875,0.203125
445,1695726161985,-0.5449219,-0.7271118,0.5661011,0.234375,0.875,0.234375
446,1695726162026,-0.54711914,-0.73394775,0.5582886,-0.125,0.609375,0.421875
447,1695726162105,-0.5437012,-0.7349243,0.55804443,-0.21875,0.9375,0.265625
448,1695726162108,-0.5437012,-0.7334595,0.56121826,-0.046875,0.78125,0.125
449,1695726162145,-0.5480957,-0.72979736,0.56243896,-0.1875,0.9375,0.265625
450,1695726162184,-0.5510254,-0.73565674,0.56073,-0.3125,1.109375,0.28125
451,1695726162226,-0.5449219,-0.7300415,0.5560913,0.109375,1.109375,0.3125
452,1695726162264,-0.5427246,-0.739563,0.56170654,-0.125,0.9375,0.171875
453,1695726162304,-0.5488281,-0.7346802,0.5585327,-0.15625,0.921875,0.21875
454,1695726162345,-0.548584,-0.7334595,0.56292725,-0.125,0.953125,0.09375
455,1695726162384,-0.5480957,-0.7319946,0.56073,-0.125,0.984375,0.234375
456,1695726162445,-0.54711914,-0.73272705,0.5565796,-0.4375,0.984375,0.15625
457,1695726162464,-0.5415039,-0.73443604,0.559021,-0.046875,0.90625,0.25
458,1695726162506,-0.54467773,-0.72662354,0.5519409,-0.34375,1.21875,0.0
459,1695726162544,-0.5480957,-0.7359009,0.5602417,-0.671875,1.3125,-0.140625
460,1695726162603,-0.5498047,-0.73809814,0.56585693,-0.125,0.875,0.046875
461,1695726162625,-0.5402832,-0.7295532,0.5595093,-0.8125,1.171875,-0.1875
462,1695726162685,-0.54467773,-0.7251587,0.55023193,-0.6875,1.09375,-0.15625
463,1695726162744,-0.5432129,-0.73687744,0.5578003,-0.796875,0.875,-0.15625
464,1695726162746,-0.5444336,-0.7424927,0.5631714,-0.703125,0.828125,-0.140625
465,1695726162783,-0.545166,-0.7307739,0.5648804,-0.328125,1.234375,0.125
466,1695726162864,-0.5410156,-0.7366333,0.5634155,-0.3125,1.421875,0.0625
467,1695726162866,-0.54663086,-0.723938,0.5614624,-0.703125,1.484375,-0.09375
468,1695726162924,-0.5473633,-0.7346802,0.5609741,-0.4375,1.28125,-0.03125
469,1695726162945,-0.546875,-0.7334595,0.5634155,-0.71875,1.328125,-0.078125
470,1695726162985,-0.5427246,-0.7305298,0.56536865,-0.671875,1.984375,-0.046875
471,1695726163005,-0.54541016,-0.7317505,0.5634155,-0.8125,1.375,0.015625
472,1695726163054,-0.54467773,-0.7329712,0.57025146,-0.875,1.328125,0.015625
473,1695726163082,-0.5480957,-0.73394775,0.5668335,-0.78125,1.3125,-0.15625
474,1695726163124,-0.546875,-0.72662354,0.56048584,-0.609375,1.5,-0.078125
475,1695726163183,-0.545166,-0.73101807,0.5722046,-0.765625,1.328125,-0.03125
476,1695726163204,-0.54345703,-0.73150635,0.5717163,-0.75,1.296875,-0.078125
477,1695726163244,-0.5432129,-0.7280884,0.57440186,-0.5,1.171875,-0.15625
478,1695726163283,-0.54467773,-0.7271118,0.57366943,-0.609375,1.0625,-0.25
479,1695726163325,-0.54956055,-0.72320557,0.5739136,-0.640625,1.546875,-0.1875
480,1695726163364,-0.5437012,-0.7283325,0.56585693,-0.59375,1.59375,-0.328125
481,1695726163404,-0.5534668,-0.7280884,0.56536865,-0.875,1.734375,-0.15625
482,1695726163444,-0.5444336,-0.7293091,0.576355,-0.5625,1.484375,0.015625
483,1695726163484,-0.54541016,-0.7276001,0.5805054,-0.03125,1.265625,0.046875
484,1695726163524,-0.54345703,-0.7293091,0.5697632,-0.796875,1.59375,-0.46875
485,1695726163564,-0.5476074,-0.7197876,0.5770874,-0.984375,1.4375,-0.359375
486,1695726163604,-0.54003906,-0.72735596,0.57489014,-0.609375,1.140625,-0.453125
487,1695726163644,-0.5415039,-0.7202759,0.5778198,-0.78125,1.234375,-0.265625
488,1695726163684,-0.54541016,-0.7192993,0.5741577,-0.75,1.46875,-0.5
489,1695726163726,-0.54711914,-0.7214966,0.57806396,-1.09375,1.3125,-0.4375
490,1695726163764,-0.54785156,-0.7210083,0.5812378,-0.765625,1.046875,-0.0625
491,1695726163804,-0.54418945,-0.71832275,0.58026123,-0.453125,1.328125,0.125
492,1695726163843,-0.5422363,-0.71588135,0.5829468,-0.640625,1.5625,-0.140625
493,1695726163883,-0.54833984,-0.7217407,0.5831909,-0.796875,1.21875,-0.21875
494,1695726163924,-0.54785156,-0.72320557,0.5841675,-0.34375,0.875,0.140625
495,1695726163964,-0.5444336,-0.72052,0.58221436,-0.34375,1.515625,0.0625
496,1695726164004,-0.54052734,-0.7185669,0.5817261,-0.5625,1.515625,-0.09375
497,1695726164043,-0.5397949,-0.7210083,0.5817261,-0.515625,1.265625,0.125
498,1695726164082,-0.54052734,-0.7251587,0.5812378,-0.421875,1.140625,0.203125
499,1695726164124,-0.5419922,-0.72442627,0.58026123,-0.484375,1.15625,0.046875
500,1695726164163,-0.54125977,-0.72198486,0.5812378,-0.5,0.96875,-0.015625
501,1695726164204,-0.546875,-0.72247314,0.58148193,-0.40625,0.921875,-0.046875
502,1695726164225,-0.54052734,-0.7227173,0.5861206,-0.265625,0.859375,-0.046875
503,1695726164265,-0.5437012,-0.7173462,0.5856323,-0.453125,1.078125,-0.0625
504,1695726164325,-0.5419922,-0.7168579,0.5812378,-0.484375,1.109375,0.046875
505,1695726164344,-0.54833984,-0.7139282,0.5861206,-0.40625,1.1875,0.03125
506,1695726164383,-0.54541016,-0.7229614,0.5848999,-0.21875,1.0625,-0.125
507,1695726164445,-0.548584,-0.72320557,0.5775757,-0.3125,1.03125,0.09375
508,1695726164506,-0.5422363,-0.71661377,0.58221436,-0.328125,1.21875,0.09375
509,1695726164508,-0.5432129,-0.723938,0.58587646,-0.34375,1.109375,0.21875
510,1695726164543,-0.5480957,-0.71417236,0.58636475,-0.28125,1.25,0.046875
511,1695726164584,-0.54589844,-0.7151489,0.5805054,-0.453125,1.125,0.109375
512,1695726164624,-0.54003906,-0.7151489,0.5848999,-0.46875,1.109375,0.046875
513,1695726164665,-0.5427246,-0.7192993,0.5844116,-0.359375,1.125,0.28125
514,1695726164707,-0.54785156,-0.7229614,0.5844116,0.109375,1.03125,0.1875
515,1695726164764,-0.5437012,-0.71417236,0.5853882,-0.734375,1.1875,-0.234375
516,1695726164784,-0.54467773,-0.7180786,0.5807495,-0.546875,1.28125,-0.234375
517,1695726164843,-0.54345703,-0.7151489,0.58636475,-0.40625,1.15625,-0.015625
518,1695726164863,-0.5498047,-0.72198486,0.5817261,-0.46875,0.890625,-0.15625
519,1695726164904,-0.5473633,-0.7192993,0.5805054,-0.59375,0.890625,-0.234375
520,1695726164964,-0.546875,-0.7210083,0.58465576,-0.40625,0.859375,0.25
521,1695726164983,-0.5546875,-0.71710205,0.5907593,-0.078125,0.84375,0.28125
522,1695726165065,-0.54541016,-0.71710205,0.5883179,-0.078125,0.640625,0.1875
523,1695726165068,-0.5517578,-0.71051025,0.5824585,-0.109375,0.5625,0.0625
524,1695726165104,-0.5444336,-0.7173462,0.588562,0.171875,0.46875,0.234375
525,1695726165145,-0.55078125,-0.7227173,0.588562,0.109375,0.1875,0.296875
526,1695726165184,-0.5437012,-0.71881104,0.58343506,-0.03125,0.71875,0.515625
527,1695726165226,-0.55249023,-0.72076416,0.5817261,0.1875,0.421875,0.40625
528,1695726165287,-0.546875,-0.7214966,0.5807495,0.296875,0.421875,0.609375
529,1695726165304,-0.5437012,-0.7210083,0.5795288,0.046875,0.09375,0.296875
530,1695726165344,-0.548584,-0.7149048,0.5726929,0.046875,0.1875,0.34375
531,1695726165427,-0.546875,-0.72198486,0.57244873,0.015625,0.171875,0.40625
532,1695726165430,-0.548584,-0.72369385,0.57440186,0.015625,0.265625,0.53125
533,1695726165464,-0.5476074,-0.7234497,0.57611084,0.28125,0.46875,0.5
534,1695726165544,-0.54248047,-0.71954346,0.5751343,0.046875,0.40625,0.4375
535,1695726165546,-0.546875,-0.7246704,0.5734253,0.203125,0.484375,0.3125
536,1695726165562,-0.54907227,-0.72857666,0.57611084,0.28125,0.640625,0.328125
537,1695726165604,-0.54418945,-0.72857666,0.57611084,0.359375,0.546875,0.359375
538,1695726165664,-0.54467773,-0.7197876,0.5709839,0.046875,0.484375,0.421875
539,1695726165683,-0.5527344,-0.725647,0.57196045,0.25,0.453125,0.375
540,1695726165744,-0.5449219,-0.7293091,0.576355,0.078125,0.515625,0.359375
541,1695726165764,-0.5456543,-0.7276001,0.56658936,0.0,0.375,0.3125
542,1695726165804,-0.5493164,-0.72735596,0.572937,0.109375,0.578125,0.4375
543,1695726165844,-0.5498047,-0.7210083,0.572937,0.453125,0.875,0.203125
544,1695726165947,-0.5510254,-0.7329712,0.5692749,-0.125,0.984375,0.078125
545,1695726165950,-0.5539551,-0.7329712,0.5717163,0.140625,0.625,0.203125
546,1695726165963,-0.54296875,-0.7293091,0.57147217,0.078125,0.6875,0.15625
547,1695726166006,-0.5439453,-0.72540283,0.56536865,-0.328125,0.78125,0.171875
548,1695726166044,-0.54589844,-0.7305298,0.559021,-0.21875,0.828125,0.203125
549,1695726166086,-0.5473633,-0.72906494,0.5621948,-0.046875,0.59375,0.015625
550,1695726166124,-0.54711914,-0.72784424,0.56414795,-0.078125,0.734375,0.28125
551,1695726166163,-0.5473633,-0.72735596,0.5631714,0.078125,0.953125,0.46875
552,1695726166225,-0.5456543,-0.72979736,0.55926514,-0.296875,1.265625,0.046875
553,1695726166243,-0.5546875,-0.72662354,0.5692749,0.0625,0.859375,0.46875
554,1695726166326,-0.5498047,-0.7300415,0.559021,-0.25,0.3125,0.46875
555,1695726166364,-0.54663086,-0.7300415,0.55755615,-0.375,1.078125,0.375
556,1695726166366,-0.54052734,-0.73223877,0.5621948,-0.234375,1.0625,0.3125
557,1695726166403,-0.5407715,-0.72784424,0.56073,-0.15625,1.03125,0.40625
558,1695726166444,-0.5385742,-0.7312622,0.55755615,-0.28125,0.859375,0.109375
559,1695726166507,-0.548584,-0.7288208,0.56121826,-0.078125,0.90625,0.0
560,1695726166523,-0.5473633,-0.7305298,0.56243896,-0.25,0.828125,0.15625
561,1695726166563,-0.548584,-0.73272705,0.5656128,-0.25,0.828125,0.09375
562,1695726166604,-0.54907227,-0.7334595,0.55926514,-0.140625,0.90625,0.125
563,1695726166643,-0.55029297,-0.73028564,0.5639038,-0.3125,1.046875,0.1875
564,1695726166704,-0.54345703,-0.73760986,0.56121826,-0.390625,1.03125,0.09375
565,1695726166724,-0.54589844,-0.72662354,0.55877686,-0.25,0.96875,0.203125
566,1695726166784,-0.54248047,-0.72662354,0.5597534,-0.25,1.15625,0.046875
567,1695726166845,-0.546875,-0.7258911,0.559021,-0.53125,1.046875,0.09375
568,1695726166848,-0.55126953,-0.7346802,0.55877686,-0.546875,1.15625,-0.046875
569,1695726166884,-0.54833984,-0.7293091,0.56121826,-0.46875,0.765625,-0.046875
570,1695726166905,-0.5432129,-0.7263794,0.5597534,-0.375,1.15625,-0.171875
571,1695726166964,-0.54296875,-0.7307739,0.5663452,-0.71875,1.46875,-0.328125
572,1695726166988,-0.54663086,-0.73443604,0.56951904,-0.15625,1.0,-0.109375
573,1695726167026,-0.54663086,-0.723938,0.55682373,-0.4375,1.25,-0.03125
574,1695726167065,-0.5419922,-0.7283325,0.5595093,-0.578125,1.546875,0.015625
575,1695726167123,-0.5500488,-0.72662354,0.5631714,-0.484375,1.328125,-0.25
576,1695726167143,-0.54907227,-0.73272705,0.5685425,-0.578125,1.0,-0.015625
577,1695726167204,-0.54589844,-0.7295532,0.5663452,-0.296875,1.484375,0.171875
578,1695726167225,-0.54467773,-0.7307739,0.5634155,-0.34375,1.296875,0.015625
579,1695726167264,-0.5461426,-0.722229,0.5626831,-0.421875,1.390625,-0.28125
580,1695726167326,-0.5473633,-0.7337036,0.571228,-0.609375,1.359375,-0.125
581,1695726167353,-0.54711914,-0.73272705,0.56951904,-0.46875,1.0625,0.015625
582,1695726167383,-0.54663086,-0.7271118,0.56585693,-0.578125,1.5,0.0
583,1695726167443,-0.54907227,-0.7295532,0.5675659,-0.484375,1.171875,-0.078125
584,1695726167466,-0.54541016,-0.72613525,0.5643921,-0.5625,1.421875,0.109375
585,1695726167504,-0.5500488,-0.7341919,0.572937,-0.4375,1.546875,0.03125
586,1695726167545,-0.546875,-0.7241821,0.5692749,-0.65625,1.203125,-0.140625
587,1695726167605,-0.5449219,-0.7300415,0.5675659,-0.75,1.1875,-0.28125
588,1695726167624,-0.54541016,-0.72662354,0.5765991,-0.453125,1.0625,-0.078125
589,1695726167663,-0.548584,-0.72735596,0.5673218,-0.515625,0.984375,-0.015625
590,1695726167704,-0.54907227,-0.72613525,0.5692749,-0.59375,1.109375,-0.21875
591,1695726167744,-0.54248047,-0.72442627,0.57025146,-0.53125,1.28125,0.0
592,1695726167784,-0.5449219,-0.7234497,0.5722046,-0.5,0.84375,-0.203125
593,1695726167824,-0.5463867,-0.72540283,0.5783081,-0.46875,1.375,-0.140625
594,1695726167864,-0.54296875,-0.7227173,0.57489014,-0.703125,1.359375,-0.109375
595,1695726167906,-0.5498047,-0.7276001,0.57025146,-0.6875,1.59375,-0.140625
596,1695726167963,-0.5456543,-0.72369385,0.5751343,-0.640625,1.3125,0.0
597,1695726167986,-0.54467773,-0.72003174,0.57684326,0.015625,1.125,-0.03125
598,1695726168025,-0.5473633,-0.72198486,0.57073975,-0.828125,1.359375,-0.328125
599,1695726168064,-0.5488281,-0.72857666,0.574646,-0.875,1.28125,-0.34375
600,1695726168105,-0.54589844,-0.72125244,0.5739136,-0.515625,1.1875,-0.21875
601,1695726168145,-0.5517578,-0.71661377,0.57366943,-0.46875,1.140625,-0.328125
602,1695726168164,-0.54711914,-0.72125244,0.57366943,-0.71875,1.59375,-0.390625
603,1695726168205,-0.5432129,-0.72906494,0.57977295,-0.640625,1.234375,-0.0625
604,1695726168244,-0.5498047,-0.7229614,0.5812378,-0.453125,1.140625,-0.015625
605,1695726168306,-0.546875,-0.71881104,0.5819702,-0.28125,1.28125,-0.03125
606,1695726168323,-0.54956055,-0.7168579,0.5751343,-0.53125,1.34375,-0.234375
607,1695726168362,-0.55029297,-0.7190552,0.5790405,-0.640625,1.390625,-0.046875
608,1695726168404,-0.54711914,-0.7227173,0.5817261,-0.265625,1.0625,0.0625
609,1695726168464,-0.5493164,-0.71881104,0.57977295,-0.546875,1.1875,0.125
610,1695726168483,-0.54907227,-0.72491455,0.58148193,-0.28125,1.125,0.15625
611,1695726168524,-0.5461426,-0.7234497,0.5819702,-0.53125,1.0,0.015625
612,1695726168585,-0.5449219,-0.72003174,0.5848999,-0.515625,0.921875,0.0
613,1695726168604,-0.54956055,-0.7149048,0.58636475,-0.71875,1.09375,-0.140625
614,1695726168644,-0.5473633,-0.7234497,0.5805054,-0.515625,1.09375,0.125
615,1695726168684,-0.55029297,-0.7190552,0.58148193,-0.546875,1.046875,0.015625
616,1695726168744,-0.54541016,-0.7173462,0.57855225,-0.5,1.234375,-0.015625
617,1695726168764,-0.5493164,-0.71417236,0.58587646,-0.609375,1.34375,0.0625
618,1695726168806,-0.5473633,-0.7168579,0.5805054,-0.46875,1.1875,-0.15625
619,1695726168844,-0.54711914,-0.7197876,0.5890503,-0.4375,1.3125,-0.03125
620,1695726168884,-0.5488281,-0.7190552,0.58221436,-0.484375,0.9375,-0.125
621,1695726168944,-0.5488281,-0.7210083,0.58148193,-0.453125,1.203125,0.140625
622,1695726168963,-0.5480957,-0.71661377,0.5853882,-0.421875,1.171875,0.03125
623,1695726169004,-0.5515137,-0.72052,0.58758545,-0.546875,1.0625,0.03125
624,1695726169044,-0.54907227,-0.72125244,0.58343506,-0.390625,1.03125,0.0625
625,1695726169085,-0.5539551,-0.7229614,0.5861206,0.0625,0.96875,0.25
626,1695726169123,-0.5444336,-0.72247314,0.58099365,-0.078125,0.859375,0.015625
627,1695726169164,-0.5439453,-0.71539307,0.57489014,-0.609375,0.984375,-0.21875
628,1695726169246,-0.5480957,-0.7197876,0.5873413,-0.546875,1.328125,-0.234375
629,1695726169249,-0.54833984,-0.722229,0.5883179,-0.296875,1.25,-0.03125
630,1695726169284,-0.5488281,-0.7124634,0.5787964,-0.453125,1.375,-0.09375
631,1695726169324,-0.54345703,-0.71661377,0.5819702,-0.671875,1.03125,-0.203125
632,1695726169363,-0.5480957,-0.7168579,0.58514404,-0.171875,0.8125,0.125
633,1695726169424,-0.54785156,-0.7149048,0.5934448,0.078125,0.53125,0.265625
634,1695726169443,-0.5510254,-0.71295166,0.5873413,-0.234375,0.75,0.15625
635,1695726169482,-0.5498047,-0.71466064,0.57928467,-0.078125,0.671875,0.1875
636,1695726169547,-0.5583496,-0.71343994,0.5856323,0.40625,0.421875,0.640625
637,1695726169550,-0.54956055,-0.7173462,0.58514404,0.28125,0.296875,0.375
638,1695726169587,-0.54589844,-0.71881104,0.5795288,0.015625,0.765625,0.65625
639,1695726169623,-0.5439453,-0.71881104,0.58221436,0.4375,0.421875,0.421875
640,1695726169684,-0.546875,-0.72247314,0.5765991,0.140625,0.140625,0.3125
641,1695726169705,-0.5444336,-0.7173462,0.5807495,0.21875,0.28125,0.453125
642,1695726169744,-0.54589844,-0.7227173,0.57025146,0.0,0.3125,0.34375
643,1695726169786,-0.55126953,-0.7229614,0.5787964,0.125,0.15625,0.53125
644,1695726169824,-0.55029297,-0.7210083,0.5778198,0.03125,0.25,0.484375
645,1695726169864,-0.55371094,-0.7163696,0.5790405,0.234375,0.375,0.453125
646,1695726169907,-0.5534668,-0.7241821,0.5709839,0.265625,0.484375,0.453125
647,1695726169944,-0.54956055,-0.7258911,0.5651245,0.171875,0.671875,0.34375
648,1695726169987,-0.5517578,-0.722229,0.56781006,0.171875,0.546875,0.34375
649,1695726170045,-0.5463867,-0.7271118,0.5697632,0.140625,0.5,0.390625
650,1695726170063,-0.5498047,-0.72784424,0.5680542,0.0625,0.6875,0.34375
651,1695726170165,-0.54418945,-0.72369385,0.57147217,0.03125,0.453125,0.328125
652,1695726170168,-0.5563965,-0.723938,0.56658936,0.265625,0.484375,0.578125
653,1695726170188,-0.5493164,-0.723938,0.56585693,0.40625,0.8125,0.578125
654,1695726170224,-0.54541016,-0.72784424,0.5609741,-0.421875,0.859375,0.109375
655,1695726170267,-0.5515137,-0.72979736,0.5687866,0.125,0.765625,0.15625
656,1695726170303,-0.5517578,-0.73101807,0.5656128,0.046875,0.453125,0.1875
657,1695726170363,-0.5534668,-0.7263794,0.56658936,-0.140625,0.640625,0.15625
658,1695726170384,-0.54956055,-0.7246704,0.557312,-0.265625,0.609375,0.140625
659,1695726170425,-0.5476074,-0.7324829,0.5648804,-0.28125,0.5,0.140625
660,1695726170485,-0.5527344,-0.72613525,0.56658936,-0.09375,0.640625,0.28125
661,1695726170506,-0.54467773,-0.72906494,0.56292725,-0.171875,0.703125,0.1875
662,1695726170545,-0.5498047,-0.7227173,0.5619507,-0.125,0.953125,0.109375
663,1695726170605,-0.5566406,-0.7280884,0.5643921,0.0,0.640625,0.265625
664,1695726170624,-0.5527344,-0.7334595,0.56365967,-0.375,0.734375,-0.015625
665,1695726170664,-0.5461426,-0.7251587,0.5621948,-0.171875,1.03125,-0.09375
666,1695726170706,-0.5500488,-0.73028564,0.5619507,-0.03125,0.984375,0.234375
667,1695726170763,-0.5463867,-0.7268677,0.5614624,-0.3125,0.875,0.40625
668,1695726170785,-0.54785156,-0.72613525,0.5565796,-0.21875,0.96875,0.234375
669,1695726170803,-0.5510254,-0.7312622,0.56707764,-0.390625,1.046875,0.140625
670,1695726170844,-0.55493164,-0.72735596,0.5639038,-0.328125,0.796875,0.21875
671,1695726170904,-0.5480957,-0.7300415,0.56121826,-0.125,0.875,0.015625
672,1695726170923,-0.5463867,-0.7319946,0.56073,-0.3125,1.078125,0.0625
673,1695726170964,-0.5473633,-0.7293091,0.56414795,-0.4375,1.03125,0.0625
674,1695726171004,-0.54467773,-0.72320557,0.5639038,-0.28125,1.0625,0.15625
675,1695726171044,-0.55078125,-0.7217407,0.56170654,-0.359375,1.03125,-0.046875
676,1695726171083,-0.55029297,-0.7214966,0.5643921,-0.34375,1.140625,0.140625
677,1695726171124,-0.5493164,-0.73809814,0.5639038,-0.578125,1.046875,0.078125
678,1695726171164,-0.54174805,-0.7227173,0.56121826,-0.25,0.953125,0.109375
679,1695726171264,-0.5493164,-0.7312622,0.5585327,-0.703125,1.5625,-0.234375
680,1695726171266,-0.5498047,-0.73272705,0.5651245,-0.53125,1.328125,-0.203125
681,1695726171304,-0.5539551,-0.7312622,0.56903076,-0.421875,1.09375,-0.171875
682,1695726171344,-0.5510254,-0.7173462,0.5619507,-0.9375,1.390625,-0.25
683,1695726171364,-0.5480957,-0.7180786,0.56048584,-0.75,1.4375,-0.171875
684,1695726171403,-0.5505371,-0.7354126,0.5595093,-0.6875,1.25,-0.265625
685,1695726171443,-0.5444336,-0.7305298,0.56536865,-0.84375,1.140625,-0.125
686,1695726171484,-0.5539551,-0.72491455,0.56951904,-0.421875,1.53125,0.15625
687,1695726171524,-0.5476074,-0.723938,0.56903076,-0.578125,1.796875,0.0625
688,1695726171564,-0.5566406,-0.7190552,0.56829834,-0.703125,1.5625,-0.25
689,1695726171606,-0.55249023,-0.73394775,0.57025146,-0.5625,1.046875,0.046875
690,1695726171664,-0.5517578,-0.7210083,0.5717163,-0.46875,1.5625,-0.09375
691,1695726171683,-0.546875,-0.72052,0.56414795,-0.546875,1.75,-0.0625
692,1695726171725,-0.5500488,-0.7227173,0.5739136,-0.671875,1.25,-0.046875
693,1695726171764,-0.5505371,-0.72540283,0.5680542,-0.4375,1.1875,0.140625
694,1695726171804,-0.5563965,-0.72662354,0.5668335,-0.609375,1.328125,-0.1875
695,1695726171844,-0.5500488,-0.72442627,0.5709839,-0.640625,1.34375,-0.109375
696,1695726171884,-0.546875,-0.7214966,0.5734253,-0.796875,1.40625,-0.28125
697,1695726171924,-0.5480957,-0.7229614,0.5697632,-0.671875,1.3125,0.046875
698,1695726171964,-0.5515137,-0.71881104,0.57196045,-0.453125,1.484375,-0.125
699,1695726172003,-0.54956055,-0.725647,0.57147217,-0.65625,1.453125,-0.046875
700,1695726172064,-0.5498047,-0.7227173,0.57733154,-0.46875,1.296875,-0.03125
701,1695726172083,-0.5488281,-0.7283325,0.5722046,-0.5,1.359375,-0.203125
702,1695726172104,-0.54418945,-0.7151489,0.57147217,-0.765625,1.515625,-0.140625
703,1695726172144,-0.5546875,-0.72052,0.5795288,-0.625,1.453125,0.03125
704,1695726172185,-0.54467773,-0.7280884,0.58026123,-0.203125,1.125,0.0
705,1695726172225,-0.54785156,-0.71759033,0.572937,-0.359375,1.296875,-0.140625
706,1695726172264,-0.54345703,-0.7293091,0.57366943,-1.09375,1.625,-0.484375
707,1695726172324,-0.5505371,-0.7217407,0.5751343,-0.828125,1.359375,-0.234375
708,1695726172344,-0.54663086,-0.71588135,0.58465576,-0.53125,1.328125,-0.21875
709,1695726172384,-0.54907227,-0.7131958,0.5778198,-0.609375,1.5,-0.390625
710,1695726172443,-0.5473633,-0.71954346,0.5783081,-0.890625,1.484375,-0.296875
711,1695726172464,-0.54589844,-0.71417236,0.5787964,-0.625,1.140625,0.015625
712,1695726172505,-0.548584,-0.72003174,0.5787964,-0.203125,1.1875,0.0
713,1695726172545,-0.546875,-0.7151489,0.58709717,-0.484375,1.375,-0.015625
714,1695726172585,-0.55029297,-0.7114868,0.5807495,-0.765625,1.203125,-0.0625
715,1695726172624,-0.5522461,-0.723938,0.5861206,-0.203125,1.171875,-0.0625
716,1695726172662,-0.55126953,-0.7192993,0.5831909,-0.109375,1.03125,0.109375
717,1695726172703,-0.5476074,-0.7168579,0.58099365,-0.390625,1.1875,0.015625
718,1695726172745,-0.548584,-0.71588135,0.5795288,-0.390625,1.171875,0.15625
719,1695726172785,-0.5473633,-0.7234497,0.58514404,-0.34375,0.921875,0.015625
720,1695726172844,-0.5444336,-0.7168579,0.57928467,-0.1875,1.0625,-0.046875
721,1695726172865,-0.54956055,-0.7168579,0.5778198,-0.421875,0.890625,0.0625
722,1695726172905,-0.54785156,-0.71661377,0.5824585,-0.4375,1.171875,0.21875
723,1695726172945,-0.548584,-0.71417236,0.58221436,-0.4375,1.140625,0.03125
724,1695726172990,-0.54907227,-0.7119751,0.58148193,-0.34375,1.03125,-0.03125
725,1695726173024,-0.54785156,-0.71710205,0.5853882,-0.34375,1.203125,0.078125
726,1695726173086,-0.55322266,-0.7163696,0.5819702,-0.15625,1.109375,0.0
727,1695726173107,-0.54711914,-0.71466064,0.5829468,-0.21875,0.984375,0.0625
728,1695726173145,-0.5500488,-0.7151489,0.5824585,-0.28125,1.0625,0.1875
729,1695726173185,-0.55078125,-0.7107544,0.5778198,-0.21875,1.078125,0.0625
730,1695726173224,-0.5463867,-0.71417236,0.576355,-0.46875,1.078125,0.015625
731,1695726173286,-0.54663086,-0.72003174,0.5770874,-0.515625,1.09375,-0.046875
732,1695726173304,-0.5488281,-0.72052,0.58587646,-0.28125,0.875,0.125
733,1695726173344,-0.5498047,-0.7139282,0.58636475,0.296875,1.234375,0.203125
734,1695726173364,-0.5456543,-0.7095337,0.586853,-0.5625,1.34375,-0.0625
735,1695726173404,-0.5527344,-0.7214966,0.5807495,-0.59375,1.078125,-0.1875
736,1695726173465,-0.54907227,-0.7139282,0.58392334,-0.25,1.34375,0.109375
737,1695726173483,-0.54907227,-0.710022,0.5873413,-0.359375,1.3125,-0.03125
738,1695726173524,-0.55200195,-0.71539307,0.58148193,-0.375,1.171875,-0.078125
739,1695726173565,-0.54833984,-0.71954346,0.5856323,-0.390625,0.921875,0.0
740,1695726173644,-0.54345703,-0.7190552,0.59051514,-0.171875,0.609375,0.1875
741,1695726173647,-0.5498047,-0.7192993,0.590271,-0.015625,0.875,0.328125
742,1695726173706,-0.5529785,-0.706604,0.58392334,-0.03125,0.640625,0.125
743,1695726173723,-0.55200195,-0.7070923,0.57977295,0.03125,0.65625,0.3125
744,1695726173762,-0.548584,-0.71221924,0.5805054,0.3125,0.328125,0.53125
745,1695726173823,-0.54711914,-0.710022,0.58270264,0.015625,0.78125,0.375
746,1695726173863,-0.54418945,-0.71343994,0.5783081,0.15625,0.546875,0.40625
747,1695726173886,-0.5539551,-0.7180786,0.5790405,0.203125,0.28125,0.453125
748,1695726173924,-0.5515137,-0.7173462,0.5790405,0.203125,0.234375,0.5625
749,1695726173963,-0.5510254,-0.71661377,0.58392334,-0.046875,0.5,0.46875
750,1695726174004,-0.55078125,-0.7173462,0.5783081,0.0,0.4375,0.515625
751,1695726174043,-0.5500488,-0.72491455,0.57440186,0.125,0.265625,0.609375
752,1695726174084,-0.5498047,-0.71588135,0.576355,0.234375,0.203125,0.390625
753,1695726174125,-0.55200195,-0.71881104,0.5717163,0.109375,0.203125,0.390625
754,1695726174188,-0.55322266,-0.7214966,0.57611084,0.171875,0.53125,0.359375
755,1695726174204,-0.54785156,-0.72125244,0.5722046,0.359375,0.53125,0.46875
756,1695726174243,-0.54907227,-0.7178345,0.5661011,0.234375,0.46875,0.46875
757,1695726174285,-0.54467773,-0.7312622,0.57196045,0.265625,0.4375,0.421875
758,1695726174324,-0.5493164,-0.72369385,0.5619507,-0.015625,0.65625,0.125
759,1695726174385,-0.5527344,-0.7168579,0.5697632,-0.03125,0.578125,0.375
