# Sensor type: Respeck
# Activity type: Standing
# Activity subtype: Talking
# Subject id: s1862623
# Notes: 
timestamp,accel_x,accel_y,accel_z,gyro_x,gyro_y,gyro_z
1695730017352,-0.28930664,-0.97613525,0.3312378,0.203125,1.25,1.125
1695730017391,-0.30664062,-0.9456177,0.322937,0.109375,2.296875,-0.34375
1695730017421,-0.31640625,-0.9307251,0.29315186,-1.0625,2.5625,-0.984375
1695730017468,-0.31323242,-0.954895,0.33343506,1.625,3.78125,-0.703125
1695730017498,-0.34350586,-0.95391846,0.33758545,-0.234375,3.671875,-0.546875
1695730017557,-0.33935547,-0.91607666,0.33343506,2.75,3.34375,-0.890625
1695730017587,-0.31054688,-0.94366455,0.27996826,-3.328125,0.515625,-0.328125
1695730017617,-0.3017578,-0.9524536,0.30755615,-1.921875,1.96875,-0.734375
1695730017662,-0.33398438,-0.95269775,0.33831787,-2.515625,5.859375,-0.625
1695730017723,-0.33276367,-0.9380493,0.3139038,-0.15625,5.5625,-0.578125
1695730017738,-0.31152344,-0.93927,0.31951904,-2.0,5.34375,-1.578125
1695730017782,-0.30493164,-0.92974854,0.32391357,-0.390625,6.234375,-0.90625
1695730017813,-0.32128906,-0.954895,0.32318115,8.171875,3.21875,0.140625
1695730017859,-0.3173828,-0.9414673,0.3078003,4.078125,3.984375,-0.234375
1695730017918,-0.31958008,-0.94488525,0.29437256,7.046875,1.5,2.015625
1695730017932,-0.30273438,-0.92510986,0.27874756,4.953125,1.140625,1.0
1695730017978,-0.31079102,-0.94976807,0.25946045,3.078125,-2.1875,2.9375
1695730018022,-0.26049805,-0.94854736,0.24456787,4.75,-1.03125,3.390625
1695730018052,-0.27416992,-0.923645,0.2616577,-1.1875,1.875,2.65625
1695730018098,-0.28393555,-0.91485596,0.28216553,-0.015625,-2.640625,5.953125
1695730018128,-0.35229492,-0.96661377,0.34613037,-1.515625,-11.34375,8.03125
1695730018174,-0.31298828,-1.0547485,0.30828857,-5.046875,-1.1875,0.109375
1695730018218,-0.33081055,-0.9890747,0.3007202,1.859375,4.09375,-1.984375
1695730018249,-0.36254883,-0.9121704,0.24212646,-4.640625,6.6875,-2.0625
1695730018297,-0.25976562,-0.93048096,0.2670288,0.21875,1.796875,-1.421875
1695730018338,-0.24169922,-0.9561157,0.27947998,-2.140625,-0.9375,-0.15625
1695730018368,-0.29370117,-0.95806885,0.29803467,-0.640625,-2.484375,-1.96875
1695730018414,-0.3166504,-0.9468384,0.30584717,-1.484375,-2.046875,-0.859375
1695730018444,-0.2927246,-0.9619751,0.28533936,-0.46875,-0.5625,-2.328125
1695730018490,-0.2980957,-0.9602661,0.28948975,-2.5625,2.921875,-2.84375
1695730018535,-0.31176758,-0.9421997,0.30340576,-1.8125,3.359375,-1.34375
1695730018563,-0.3071289,-0.93829346,0.2909546,-0.03125,-0.140625,-1.8125
1695730018608,-0.30126953,-0.9380493,0.28460693,-0.59375,-1.53125,-0.3125
1695730018654,-0.3010254,-0.95025635,0.29656982,-0.078125,-0.46875,-0.71875
1695730018686,-0.34350586,-0.9512329,0.29779053,0.640625,-0.6875,0.484375
1695730018729,-0.33154297,-0.9507446,0.29437256,-1.671875,1.78125,0.625
1695730018774,-0.30297852,-0.9314575,0.28070068,0.109375,2.03125,-1.1875
1695730018803,-0.31884766,-0.9578247,0.31341553,0.015625,1.25,0.90625
1695730018849,-0.3076172,-0.942688,0.28900146,-3.578125,2.59375,-1.9375
1695730018879,-0.33374023,-0.9483032,0.28997803,-0.03125,2.953125,-0.921875
1695730018923,-0.3059082,-0.9492798,0.28875732,-3.484375,1.0,0.859375
1695730018969,-0.29736328,-0.9404907,0.3143921,-3.234375,0.453125,-1.3125
1695730019014,-0.3190918,-0.95098877,0.30755615,-1.375,0.5,0.34375
1695730019043,-0.34448242,-0.9483032,0.29901123,-2.53125,2.625,1.671875
1695730019090,-0.30419922,-0.9248657,0.29681396,-3.46875,2.84375,-0.875
1695730019118,-0.26391602,-0.928772,0.2994995,-6.796875,0.640625,-1.09375
1695730019165,-0.33007812,-0.96759033,0.3546753,-1.53125,-0.53125,-0.078125
1695730019193,-0.32470703,-0.96832275,0.32269287,-4.421875,3.9375,-0.796875
1695730019240,-0.3400879,-0.9338989,0.3180542,0.5625,1.421875,0.9375
1695730019283,-0.29833984,-0.91290283,0.30706787,-7.125,2.96875,0.296875
1695730019313,-0.30297852,-0.9463501,0.3468628,-3.65625,2.84375,1.859375
1695730019358,-0.33862305,-0.9187622,0.37054443,-10.421875,-2.75,2.4375
1695730019404,-0.32983398,-0.89971924,0.35931396,-11.078125,-4.390625,-0.421875
1695730019432,-0.32177734,-0.9492798,0.38641357,-6.296875,-2.3125,1.0625
1695730019478,-0.2919922,-0.895813,0.338562,-3.375,-2.203125,-1.484375
1695730019554,-0.27368164,-0.9365845,0.40447998,2.78125,-2.546875,-1.9375
1695730019557,-0.2980957,-0.9553833,0.36639404,0.234375,-4.78125,0.84375
1695730019598,-0.34057617,-0.91241455,0.3451538,3.140625,-6.859375,-1.046875
1695730019631,-0.35595703,-0.9319458,0.3505249,3.5,-4.96875,0.75
1695730019674,-0.34472656,-0.9627075,0.38446045,1.203125,-2.125,3.703125
1695730019719,-0.3400879,-0.9319458,0.34197998,-3.875,-1.765625,2.421875
1695730019749,-0.32739258,-0.9048462,0.34002686,-3.203125,-2.1875,1.765625
1695730019797,-0.27416992,-0.9194946,0.37982178,-7.015625,-0.515625,2.9375
1695730019822,-0.31835938,-0.9402466,0.36810303,-12.09375,-3.859375,4.421875
1695730019870,-0.34277344,-0.9121704,0.3895874,-14.15625,-3.765625,5.0
1695730019914,-0.29833984,-0.90045166,0.4003296,-12.078125,-4.359375,4.40625
1695730019947,-0.2758789,-0.9109497,0.41156006,-5.703125,-4.484375,0.734375
1695730019989,-0.30249023,-0.9234009,0.418396,-9.953125,-7.234375,2.921875
1695730020038,-0.31420898,-0.9143677,0.41448975,-3.078125,-6.5,2.828125
1695730020063,-0.32543945,-0.9092407,0.4093628,-6.859375,-7.546875,3.640625
1695730020109,-0.29077148,-0.90045166,0.42181396,-4.109375,-5.46875,2.46875
1695730020139,-0.3408203,-0.93341064,0.4508667,-3.796875,-4.015625,5.546875
1695730020199,-0.3371582,-0.90997314,0.41644287,-5.375,-2.5,3.546875
1695730020230,-0.29101562,-0.88409424,0.43499756,-1.96875,-1.109375,1.234375
1695730020259,-0.2878418,-0.9246216,0.4459839,0.8125,-1.578125,2.640625
1695730020305,-0.31054688,-0.91900635,0.43670654,-2.546875,-1.71875,4.140625
1695730020349,-0.3227539,-0.8936157,0.43084717,-3.5,-3.640625,4.125
1695730020378,-0.29467773,-0.8945923,0.44110107,-0.8125,-5.21875,3.390625
1695730020428,-0.25463867,-0.9194946,0.4401245,-4.265625,-3.703125,2.140625
1695730020455,-0.2614746,-0.90948486,0.42718506,-5.90625,-8.90625,4.484375
1695730020498,-0.26416016,-0.92974854,0.46820068,-6.0,-7.921875,6.78125
1695730020575,-0.27905273,-0.9302368,0.49969482,-4.703125,-8.5,10.765625
1695730020578,-0.3005371,-0.8587036,0.4533081,-10.78125,-4.75,7.890625
1695730020619,-0.29418945,-0.87042236,0.46746826,-9.984375,-1.140625,6.953125
1695730020664,-0.29492188,-0.9011841,0.5031128,-9.671875,-4.5625,6.78125
1695730020694,-0.29418945,-0.90338135,0.5140991,-7.078125,-0.828125,2.640625
1695730020739,-0.34423828,-0.8916626,0.47821045,-7.609375,0.921875,2.015625
1695730020769,-0.2770996,-0.862854,0.49261475,-0.984375,6.0625,1.5
1695730020814,-0.22729492,-0.8911743,0.5211792,-1.015625,5.15625,2.40625
1695730020860,-0.23754883,-0.8965454,0.47283936,0.1875,7.796875,-0.0625
1695730020904,-0.265625,-0.87457275,0.52557373,3.75,6.46875,0.703125
1695730020933,-0.26000977,-0.8831177,0.48114014,-1.59375,7.3125,-0.0625
1695730020978,-0.23510742,-0.8682251,0.48431396,3.015625,5.078125,0.078125
1695730021009,-0.18969727,-0.91070557,0.5133667,1.390625,5.78125,1.671875
1695730021054,-0.20825195,-0.9168091,0.5414429,-0.484375,3.0,1.59375
1695730021084,-0.2619629,-0.8909302,0.52874756,-0.25,2.5,1.4375
1695730021129,-0.24511719,-0.8826294,0.49945068,-3.84375,0.75,-1.296875
1695730021174,-0.19946289,-0.91192627,0.51678467,-1.046875,4.1875,-1.9375
1695730021203,-0.21411133,-0.8748169,0.51727295,-0.484375,3.375,-2.1875
1695730021249,-0.26733398,-0.8960571,0.510437,-1.109375,0.859375,-1.4375
1695730021294,-0.22094727,-0.90631104,0.50897217,-0.015625,1.59375,-4.109375
1695730021323,-0.21240234,-0.8982544,0.5285034,2.484375,1.953125,-2.46875
1695730021369,-0.23999023,-0.8892212,0.4882202,0.0625,4.34375,-2.28125
1695730021399,-0.24707031,-0.8904419,0.5314331,4.90625,5.984375,-3.59375
1695730021442,-0.25927734,-0.8862915,0.5140991,-0.140625,2.390625,-3.0
1695730021489,-0.2553711,-0.90826416,0.49334717,-0.953125,5.0,-4.734375
1695730021518,-0.23510742,-0.88409424,0.53167725,2.484375,5.421875,-2.890625
1695730021566,-0.26757812,-0.86724854,0.4796753,1.234375,3.03125,-4.109375
1695730021608,-0.25805664,-0.89141846,0.5001831,2.265625,5.328125,-5.84375
1695730021638,-0.26513672,-0.8892212,0.5241089,5.5,4.34375,-5.03125
1695730021684,-0.28271484,-0.8792114,0.49041748,2.5625,1.78125,-6.875
1695730021723,-0.28735352,-0.8928833,0.46820068,5.453125,5.046875,-8.6875
1695730021761,-0.2607422,-0.927063,0.4940796,8.203125,4.265625,-8.53125
1695730021804,-0.25854492,-0.91778564,0.47528076,5.46875,1.671875,-8.78125
1695730021832,-0.29174805,-0.8796997,0.47235107,5.84375,-2.53125,-2.625
1695730021877,-0.27001953,-0.9102173,0.46380615,2.078125,1.859375,-2.75
1695730021922,-0.23168945,-0.93634033,0.4862671,7.546875,-0.796875,-2.796875
1695730021953,-0.28149414,-0.84210205,0.39105225,2.5,-5.6875,1.453125
1695730021997,-0.37597656,-0.86505127,0.3776245,6.671875,-1.984375,1.71875
1695730022029,-0.3881836,-1.0032349,0.45159912,5.796875,-1.078125,-2.015625
1695730022072,-0.28930664,-0.96051025,0.465271,6.96875,1.984375,-1.625
1695730022118,-0.28442383,-0.9002075,0.44696045,11.46875,14.265625,0.328125
1695730022149,-0.31933594,-0.95196533,0.40179443,5.921875,21.15625,-1.0625
1695730022195,-0.34350586,-0.9734497,0.29144287,22.546875,28.90625,2.234375
1695730022239,-0.3798828,-1.0576782,0.3241577,31.296875,50.9375,-1.78125
1695730022269,-0.21679688,-0.87823486,0.27166748,27.34375,24.859375,5.03125
1695730022314,-0.18481445,-0.7402954,0.22479248,11.015625,-7.265625,12.984375
1695730022344,-0.13867188,-0.9627075,0.2723999,2.0625,-9.34375,12.03125
1695730022390,-0.1538086,-1.0059204,0.33758545,5.0,-22.28125,12.171875
1695730022437,-0.2788086,-0.89141846,0.21575928,-12.453125,-32.46875,9.796875
1695730022463,-0.33911133,-1.1065063,0.30926514,-2.109375,2.9375,3.359375
1695730022509,-0.3310547,-1.0471802,0.36053467,8.3125,-3.25,-6.125
1695730022556,-0.29638672,-0.8682251,0.24554443,-4.734375,-1.03125,-8.859375
1695730022587,-0.15185547,-0.96051025,0.30023193,-0.40625,-0.9375,-4.0
1695730022629,-0.23535156,-0.9976196,0.32806396,-1.65625,-3.203125,-2.78125
1695730022676,-0.33007812,-0.93585205,0.29559326,-0.890625,0.953125,-5.96875
1695730022705,-0.28588867,-0.96954346,0.30975342,-6.078125,2.25,-5.140625
1695730022749,-0.2446289,-0.98150635,0.32000732,-4.5,3.671875,-4.359375
1695730022779,-0.25024414,-0.97125244,0.33465576,-1.28125,4.890625,-3.953125
1695730022824,-0.21386719,-0.9312134,0.3295288,-4.84375,-1.5625,-2.09375
1695730022871,-0.27001953,-0.9710083,0.34075928,-5.765625,-8.140625,-1.140625
1695730022899,-0.30517578,-0.9546509,0.33319092,-9.359375,-2.53125,-3.40625
1695730022945,-0.2421875,-0.94732666,0.3217163,-9.421875,3.203125,-6.3125
1695730022990,-0.27905273,-0.9546509,0.36541748,-1.390625,-4.375,0.171875
1695730023018,-0.3166504,-0.9368286,0.37982178,-3.46875,-1.3125,-0.0625
1695730023064,-0.29907227,-0.9133911,0.32806396,-6.875,-4.390625,-1.1875
1695730023094,-0.28979492,-0.9468384,0.36053467,-3.828125,-7.78125,1.28125
1695730023139,-0.2607422,-0.9780884,0.4064331,-1.078125,0.609375,1.640625
1695730023184,-0.29956055,-0.9614868,0.3307495,-2.921875,1.734375,3.109375
1695730023214,-0.24511719,-0.89508057,0.3168335,0.90625,-1.984375,1.375
1695730023258,-0.25683594,-0.92755127,0.3678589,7.09375,0.734375,3.359375
1695730023304,-0.2919922,-0.9180298,0.34417725,0.15625,2.8125,1.296875
1695730023335,-0.31445312,-0.92852783,0.32562256,2.109375,-1.46875,1.90625
1695730023378,-0.27246094,-0.94659424,0.40325928,4.71875,-1.984375,1.421875
1695730023410,-0.31347656,-0.940979,0.36883545,-9.921875,-4.234375,2.125
1695730023454,-0.31396484,-0.9209595,0.36273193,-8.296875,0.90625,1.390625
1695730023499,-0.26733398,-0.9661255,0.40325928,-3.3125,2.984375,-3.421875
1695730023528,-0.28320312,-0.9434204,0.402771,-0.390625,8.671875,0.125
1695730023573,-0.28833008,-0.9378052,0.3534546,-2.6875,12.078125,-0.25
1695730023650,-0.25756836,-0.90948486,0.35662842,1.09375,9.5625,-7.09375
1695730023652,-0.28100586,-0.9014282,0.38763428,6.25,6.296875,-6.953125
1695730023693,-0.3347168,-0.9192505,0.37005615,3.015625,5.953125,-5.1875
1695730023722,-0.32177734,-0.93463135,0.35443115,2.6875,8.09375,-8.6875
1695730023769,-0.296875,-0.94000244,0.37860107,3.453125,7.40625,-10.359375
1695730023814,-0.32617188,-0.9314575,0.3703003,5.828125,10.25,-6.734375
1695730023845,-0.31079102,-0.89849854,0.33709717,2.796875,8.21875,-9.3125
1695730023889,-0.34423828,-0.9336548,0.3600464,5.984375,8.125,-6.46875
1695730023934,-0.33520508,-0.9492798,0.36932373,1.484375,11.390625,-6.125
1695730023964,-0.33374023,-0.92633057,0.33319092,5.84375,8.53125,-8.234375
1695730024008,-0.31689453,-0.92144775,0.36297607,7.625,9.09375,-4.84375
1695730024038,-0.33496094,-0.928772,0.33563232,0.234375,6.5625,-6.8125
1695730024083,-0.32763672,-0.92315674,0.3414917,4.21875,2.703125,-7.734375
1695730024130,-0.3701172,-0.960022,0.32733154,3.734375,6.234375,-4.265625
1695730024159,-0.35473633,-0.923645,0.31195068,0.953125,7.296875,-4.578125
1695730024204,-0.37231445,-0.9282837,0.3475952,6.484375,1.640625,-0.171875
1695730024249,-0.38378906,-0.9404907,0.33880615,0.625,6.484375,-0.6875
1695730024278,-0.37573242,-0.923645,0.3463745,3.078125,6.53125,0.375
1695730024325,-0.39648438,-0.89923096,0.30389404,-6.171875,8.953125,0.734375
1695730024356,-0.39672852,-0.897522,0.3373413,0.625,7.65625,-2.375
1695730024398,-0.35546875,-0.9234009,0.35272217,-0.03125,8.15625,-1.4375
1695730024444,-0.31054688,-0.90045166,0.34124756,1.09375,4.515625,-1.671875
1695730024477,-0.38500977,-0.90631104,0.3324585,-5.71875,2.109375,-3.515625
1695730024517,-0.42626953,-0.9380493,0.35198975,-0.046875,3.609375,-0.015625
1695730024563,-0.37182617,-0.894104,0.32977295,-0.84375,4.953125,-1.125
1695730024598,-0.34399414,-0.8933716,0.33538818,0.625,3.25,-1.984375
1695730024640,-0.37890625,-0.94537354,0.3468628,-0.46875,3.3125,-2.0
1695730024669,-0.38989258,-0.92803955,0.35028076,-0.390625,4.09375,-1.703125
1695730024714,-0.37963867,-0.8882446,0.34051514,0.96875,3.375,-3.015625
1695730024759,-0.36914062,-0.91119385,0.3319702,-0.25,7.046875,-3.59375
1695730024790,-0.37524414,-0.9302368,0.33758545,1.546875,9.453125,-3.59375
1695730024835,-0.35131836,-0.89678955,0.31097412,2.578125,4.328125,-4.546875
1695730024877,-0.42333984,-0.93218994,0.34783936,4.3125,7.9375,1.421875
1695730024909,-0.3112793,-0.9248657,0.3222046,7.046875,7.71875,4.578125
1695730024956,-0.34375,-0.9204712,0.30706787,6.453125,1.65625,3.625
1695730024983,-0.36450195,-0.913147,0.29510498,4.140625,-1.640625,3.59375
1695730025028,-0.3395996,-0.94537354,0.3143921,5.515625,-3.484375,5.859375
1695730025080,-0.34765625,-0.9331665,0.30804443,4.390625,-3.125,2.84375
1695730025106,-0.37402344,-0.8792114,0.30267334,10.890625,-7.359375,5.28125
1695730025149,-0.33618164,-0.9229126,0.30291748,1.96875,-10.5625,5.359375
1695730025194,-0.3347168,-0.9883423,0.34197998,-1.4375,-8.0625,1.0625
1695730025229,-0.34326172,-0.97076416,0.30828857,2.25,-7.015625,6.515625
1695730025269,-0.33862305,-0.9011841,0.24920654,-6.625,-8.6875,7.78125
1695730025299,-0.34887695,-0.9578247,0.2592163,-2.03125,-7.078125,4.46875
1695730025350,-0.30200195,-1.0232544,0.34320068,2.4375,-7.515625,-1.421875
1695730025390,-0.32885742,-0.9163208,0.27142334,-2.859375,-13.0,1.671875
1695730025421,-0.37695312,-0.92926025,0.26141357,-12.359375,-7.859375,3.609375
1695730025462,-0.4116211,-0.97613525,0.32757568,-4.59375,-8.015625,0.46875
1695730025509,-0.3815918,-0.9192505,0.32562256,-15.625,-4.296875,4.15625
1695730025539,-0.32104492,-0.8804321,0.3065796,-16.75,-2.484375,4.9375
1695730025584,-0.29638672,-0.9846802,0.3522339,-17.0,-5.25,0.328125
1695730025614,-0.32543945,-0.97369385,0.34783936,-10.71875,-0.890625,2.921875
1695730025661,-0.37573242,-0.89190674,0.34906006,-6.484375,1.71875,2.90625
1695730025705,-0.31762695,-0.8596802,0.30584717,-8.6875,-2.75,0.421875
1695730025733,-0.2861328,-0.9336548,0.3991089,-1.65625,-5.796875,0.796875
1695730025779,-0.34106445,-0.93951416,0.36810303,-7.3125,-8.4375,2.828125
1695730025826,-0.38842773,-0.91778564,0.37835693,-4.109375,-4.765625,1.796875
1695730025854,-0.34179688,-0.94122314,0.42156982,-4.9375,-0.40625,1.765625
1695730025898,-0.34057617,-0.9155884,0.4081421,-6.890625,-1.625,3.125
1695730025930,-0.31835938,-0.9204712,0.387146,-8.5625,-2.421875,4.40625
1695730025975,-0.29003906,-0.9102173,0.4039917,-9.3125,0.4375,3.515625
1695730026022,-0.28808594,-0.8987427,0.46453857,4.046875,10.171875,3.546875
1695730026049,-0.3955078,-0.92315674,0.40960693,-0.609375,12.53125,8.5625
1695730026094,-0.29345703,-0.9546509,0.3756714,8.8125,21.546875,0.109375
1695730026139,-0.24609375,-0.9976196,0.48406982,20.671875,8.671875,2.71875
1695730026170,-0.28955078,-0.829895,0.3522339,5.09375,-5.796875,4.46875
1695730026214,-0.2529297,-0.8543091,0.32513428,4.890625,3.3125,6.578125
1695730026259,-0.32910156,-0.98565674,0.3805542,3.234375,4.046875,6.609375
1695730026289,-0.28027344,-0.9109497,0.29681396,3.75,1.5,1.515625
1695730026335,-0.17358398,-0.84698486,0.32489014,-1.296875,-0.453125,1.15625
1695730026363,-0.17211914,-0.87335205,0.3764038,-3.703125,-13.984375,9.328125
1695730026409,-0.36132812,-0.98638916,0.45281982,-9.515625,-13.625,9.53125
1695730026454,-0.25610352,-1.0806274,0.35882568,-3.1875,5.578125,-2.671875
1695730026484,-0.2265625,-0.9104614,0.385437,4.609375,1.59375,-0.515625
1695730026528,-0.24511719,-0.8904419,0.37420654,-0.46875,8.140625,1.515625
1695730026574,-0.23266602,-1.0059204,0.3895874,-3.1875,12.765625,-1.734375
1695730026603,-0.23266602,-0.9404907,0.37322998,3.609375,9.9375,-2.21875
1695730026649,-0.18017578,-0.90875244,0.36761475,2.296875,6.53125,-3.015625
1695730026679,-0.2199707,-0.9505005,0.369812,-0.609375,0.640625,-2.3125
1695730026724,-0.25854492,-0.9553833,0.36590576,3.859375,-1.734375,-0.890625
1695730026771,-0.24804688,-0.91778564,0.40447998,3.84375,-5.765625,-0.25
1695730026799,-0.25610352,-0.9234009,0.3439331,0.171875,-9.96875,-1.625
1695730026846,-0.25708008,-0.9727173,0.34857178,-0.40625,-1.421875,-1.015625
1695730026889,-0.23608398,-0.9678345,0.3788452,1.5,0.90625,-4.03125
1695730026918,-0.27148438,-0.9434204,0.35662842,0.375,-2.78125,-2.453125
1695730026964,-0.23950195,-0.9373169,0.354187,-4.453125,-3.953125,-6.34375
1695730026993,-0.2475586,-0.9299927,0.34710693,-1.890625,-3.984375,-6.96875
1695730027039,-0.3125,-0.9404907,0.36956787,1.21875,-5.171875,-3.765625
1695730027083,-0.34692383,-0.9446411,0.37200928,-2.734375,-5.859375,-5.203125
1695730027117,-0.32788086,-0.89801025,0.31414795,0.0,-7.203125,-8.390625
1695730027158,-0.31884766,-0.9019165,0.324646,2.65625,-4.53125,-7.796875
1695730027205,-0.31420898,-0.92926025,0.35858154,3.21875,-2.265625,-9.765625
1695730027238,-0.3840332,-0.94537354,0.32562256,1.453125,-3.078125,-8.828125
1695730027294,-0.41308594,-0.93463135,0.28900146,-0.09375,6.953125,-8.96875
1695730027309,-0.38793945,-0.9143677,0.32318115,4.875,7.65625,-6.578125
1695730027355,-0.37182617,-0.92388916,0.33636475,5.375,7.234375,-3.40625
1695730027399,-0.38867188,-0.9104614,0.30438232,6.015625,7.640625,-4.578125
1695730027428,-0.39160156,-0.9104614,0.2982788,10.421875,2.21875,-1.625
1695730027474,-0.4050293,-0.93096924,0.30267334,5.9375,7.09375,0.171875
1695730027518,-0.38061523,-0.94244385,0.3102417,9.375,7.171875,-3.03125
1695730027549,-0.36401367,-0.95098877,0.29071045,1.515625,7.375,-2.65625
1695730027593,-0.32421875,-0.91412354,0.3295288,4.3125,7.71875,-2.125
1695730027625,-0.3737793,-0.93414307,0.30413818,-0.90625,7.0,-2.546875
1695730027669,-0.3779297,-0.9336548,0.2921753,-0.3125,6.703125,-4.390625
1695730027714,-0.34765625,-0.9307251,0.29559326,-0.875,5.875,-4.765625
1695730027743,-0.35131836,-0.944397,0.29608154,2.28125,4.4375,0.125
1695730027791,-0.36791992,-0.93218994,0.30291748,2.328125,1.828125,0.90625
1695730027837,-0.38623047,-0.92559814,0.29022217,2.4375,-2.0625,2.625
1695730027863,-0.36035156,-0.958313,0.29193115,-3.53125,-2.265625,4.265625
1695730027909,-0.36401367,-0.93218994,0.307312,-2.8125,-1.984375,3.90625
1695730027939,-0.3659668,-0.9314575,0.28900146,-4.515625,-2.53125,2.78125
1695730027986,-0.36157227,-0.9356079,0.29241943,-3.671875,-1.296875,2.96875
1695730028030,-0.36621094,-0.92803955,0.32366943,-2.265625,-2.640625,3.46875
1695730028059,-0.38427734,-0.9199829,0.3012085,-3.734375,-5.546875,1.359375
1695730028105,-0.35791016,-0.93707275,0.29534912,-2.515625,-1.90625,1.390625
1695730028149,-0.37548828,-0.9199829,0.30877686,0.671875,-1.78125,4.0
1695730028179,-0.39770508,-0.93218994,0.29779053,-5.203125,-1.171875,2.875
1695730028224,-0.37963867,-0.9192505,0.3283081,-3.3125,-0.3125,0.421875
1695730028254,-0.3557129,-0.92315674,0.31756592,-2.5,-0.21875,0.796875
1695730028298,-0.37768555,-0.92926025,0.32391357,-2.921875,1.375,0.53125
1695730028345,-0.37353516,-0.91778564,0.3217163,-1.734375,2.0625,-0.140625
1695730028374,-0.38842773,-0.92315674,0.32196045,-1.8125,3.3125,-1.609375
1695730028418,-0.36645508,-0.9241333,0.30828857,-1.8125,4.1875,-1.5625
1695730028464,-0.35839844,-0.927063,0.32318115,1.515625,4.140625,1.03125
1695730028495,-0.3461914,-0.9209595,0.3180542,-2.25,5.59375,-0.546875
1695730028539,-0.36938477,-0.9351196,0.34857178,-0.859375,2.296875,1.9375
1695730028569,-0.35327148,-0.9260864,0.32366943,-4.328125,4.375,2.421875
1695730028614,-0.32543945,-0.89141846,0.322937,-1.09375,2.296875,0.765625
1695730028659,-0.35766602,-0.9307251,0.32611084,-0.203125,2.171875,1.71875
1695730028689,-0.34448242,-0.93951416,0.33538818,-0.953125,5.484375,-0.421875
1695730028734,-0.33911133,-0.9260864,0.34979248,1.890625,2.4375,-1.078125
1695730028778,-0.35668945,-0.9067993,0.33465576,0.8125,-0.046875,-0.140625
1695730028809,-0.34594727,-0.93048096,0.33538818,1.15625,0.84375,-1.640625
1695730028855,-0.3413086,-0.9351196,0.3534546,2.8125,-0.53125,-1.078125
1695730028885,-0.3395996,-0.93414307,0.3348999,-1.8125,-0.453125,-2.296875
1695730028929,-0.35986328,-0.9146118,0.34344482,0.8125,-2.234375,-0.75
1695730028974,-0.3815918,-0.91485596,0.34588623,-3.859375,-0.53125,0.703125
1695730029004,-0.38330078,-0.9324341,0.33221436,-1.859375,3.0625,0.75
1695730029049,-0.34570312,-0.92071533,0.340271,2.296875,6.109375,0.609375
1695730029095,-0.34423828,-0.8960571,0.33929443,-2.34375,2.25,0.125
1695730029123,-0.37036133,-0.94122314,0.35321045,0.78125,3.875,-0.1875
1695730029169,-0.37695312,-0.93341064,0.3390503,-5.046875,5.609375,0.34375
1695730029199,-0.3635254,-0.9121704,0.34783936,-3.234375,7.125,-1.78125
1695730029246,-0.34716797,-0.9175415,0.3534546,-1.5,5.484375,-1.78125
1695730029289,-0.3388672,-0.93756104,0.3612671,-0.375,4.328125,1.90625
1695730029318,-0.3190918,-0.91119385,0.36029053,-3.875,5.625,-0.84375
1695730029366,-0.34838867,-0.92437744,0.36688232,-3.375,5.640625,-0.015625
1695730029411,-0.38110352,-0.90631104,0.3427124,-11.578125,10.71875,0.890625
1695730029439,-0.38671875,-0.9072876,0.36297607,-2.25,6.890625,-2.515625
1695730029487,-0.32714844,-0.92559814,0.39715576,-1.515625,5.640625,-3.25
1695730029514,-0.28149414,-0.9121704,0.3788452,-4.71875,4.953125,-2.90625
1695730029559,-0.35424805,-0.9067993,0.37713623,1.109375,5.78125,-3.421875
1695730029605,-0.38012695,-0.8897095,0.40789795,3.15625,-0.78125,-1.484375
1695730029636,-0.31274414,-0.92022705,0.40545654,0.015625,0.9375,-2.96875
1695730029679,-0.33666992,-0.9036255,0.40985107,2.25,0.984375,-0.78125
1695730029725,-0.37548828,-0.8982544,0.3866577,5.625,-0.46875,1.203125
1695730029754,-0.33764648,-0.89019775,0.37078857,-1.546875,-4.578125,-1.015625
1695730029798,-0.31518555,-0.89630127,0.41619873,5.703125,-8.03125,-0.03125
1695730029829,-0.3918457,-0.9170532,0.3834839,-5.609375,-10.671875,2.5625
1695730029878,-0.40551758,-0.923645,0.36883545,-1.953125,-2.28125,1.515625
1695730029918,-0.34716797,-0.89923096,0.38812256,-1.09375,-2.515625,-1.671875
1695730029949,-0.35717773,-0.897522,0.38568115,-0.234375,-1.75,0.90625
1695730029994,-0.3659668,-0.8965454,0.37957764,0.734375,-5.046875,0.203125
1695730030038,-0.39892578,-0.93707275,0.41448975,2.28125,1.71875,-4.25
1695730030070,-0.37768555,-0.92974854,0.434021,16.765625,10.265625,-3.09375
1695730030114,-0.46240234,-0.8970337,0.32269287,6.96875,11.6875,4.4375
1695730030159,-0.42700195,-0.9475708,0.33831787,20.078125,17.015625,4.171875
1695730030189,-0.3388672,-0.9480591,0.3378296,7.625,3.3125,4.703125
1695730030235,-0.27075195,-0.8843384,0.21722412,9.859375,-8.140625,4.59375
1695730030264,-0.26757812,-0.8965454,0.31976318,6.75,-3.078125,9.3125
1695730030309,-0.37353516,-0.89556885,0.27996826,-11.9375,-7.421875,8.1875
1695730030354,-0.38867188,-0.9209595,0.29901123,-7.625,-6.515625,1.34375
1695730030414,-0.31103516,-1.0200806,0.3534546,-3.8125,-2.9375,-1.796875
1695730030428,-0.35327148,-0.93927,0.2975464,-1.9375,1.0,1.046875
1695730030474,-0.31298828,-0.9133911,0.30877686,-1.734375,6.734375,-1.703125
1695730030507,-0.3178711,-0.9512329,0.3209839,-0.40625,2.734375,-0.34375
1695730030549,-0.34277344,-0.95269775,0.3241577,-0.15625,2.5625,2.109375
1695730030579,-0.31982422,-0.9216919,0.307312,-1.140625,0.84375,1.53125
1695730030624,-0.3256836,-0.92266846,0.32855225,-3.765625,2.8125,-1.140625
1695730030669,-0.33154297,-0.940979,0.33685303,-1.171875,1.578125,1.671875
1695730030699,-0.3269043,-0.9402466,0.3324585,-3.234375,2.5,1.71875
1695730030745,-0.3310547,-0.93634033,0.3065796,-1.78125,0.71875,1.03125
1695730030789,-0.2866211,-0.942688,0.34466553,0.203125,-0.125,2.734375
1695730030819,-0.31518555,-0.9314575,0.3204956,-5.65625,-2.578125,1.96875
1695730030864,-0.31225586,-0.928772,0.3378296,-1.4375,-0.9375,0.25
1695730030894,-0.32128906,-0.9365845,0.35198975,-1.0,-0.09375,2.828125
1695730030940,-0.32226562,-0.9324341,0.3287964,-0.25,-1.359375,3.578125
1695730030984,-0.31518555,-0.9536743,0.3493042,2.40625,-2.625,1.46875
1695730031014,-0.27783203,-0.9663696,0.33392334,0.328125,-3.890625,-0.125
1695730031059,-0.29663086,-0.9180298,0.324646,-4.140625,-1.671875,0.53125
1695730031139,-0.3347168,-0.9273071,0.32391357,-4.265625,-2.5625,0.015625
1695730031142,-0.32641602,-0.9517212,0.3522339,-4.09375,-0.53125,-2.6875
1695730031179,-0.3178711,-0.93756104,0.33465576,-4.65625,1.1875,-0.578125
1695730031209,-0.32617188,-0.92388916,0.34075928,-5.09375,0.515625,1.765625
1695730031254,-0.30981445,-0.9146118,0.36297607,-4.609375,-3.25,-1.8125
1695730031298,-0.33496094,-0.9517212,0.38372803,-2.5625,-2.828125,-0.171875
1695730031329,-0.36816406,-0.92755127,0.3534546,-7.828125,1.640625,1.25
1695730031375,-0.33984375,-0.8999634,0.37298584,-5.296875,1.75,-1.609375
1695730031419,-0.31860352,-0.927063,0.36444092,-4.140625,1.515625,-2.078125
1695730031449,-0.32617188,-0.92633057,0.39520264,-1.78125,2.28125,1.328125
1695730031494,-0.3227539,-0.9199829,0.37957764,-5.015625,0.65625,-0.34375
1695730031523,-0.32128906,-0.9060669,0.37591553,-1.46875,2.234375,-1.78125
1695730031569,-0.32617188,-0.9116821,0.39642334,-1.78125,2.9375,0.265625
1695730031615,-0.34301758,-0.911438,0.38787842,-2.671875,4.125,0.03125
1695730031644,-0.3310547,-0.9102173,0.37591553,0.21875,2.578125,-1.46875
1695730031689,-0.30541992,-0.9260864,0.40057373,-0.234375,3.234375,-1.453125
1695730031737,-0.3330078,-0.91363525,0.40545654,-3.640625,0.734375,1.125
1695730031764,-0.34301758,-0.8897095,0.39813232,-2.5625,2.453125,-1.5
1695730031809,-0.33642578,-0.9168091,0.39837646,-1.046875,1.171875,-2.78125
1695730031839,-0.32421875,-0.91607666,0.43304443,1.921875,2.140625,-0.921875
1695730031885,-0.34545898,-0.8994751,0.38006592,-3.203125,1.375,-0.625
1695730031928,-0.34301758,-0.92633057,0.39178467,-0.609375,4.890625,-0.515625
1695730031959,-0.31030273,-0.9102173,0.41253662,-0.65625,0.171875,-2.015625
1695730032005,-0.31079102,-0.90045166,0.41131592,-2.09375,0.453125,-2.734375
1695730032049,-0.3527832,-0.9036255,0.41693115,-0.53125,-0.1875,-0.8125
1695730032078,-0.37426758,-0.9116821,0.40667725,-3.609375,1.390625,-2.65625
1695730032124,-0.34692383,-0.8970337,0.40374756,-0.375,0.71875,-4.6875
1695730032154,-0.31933594,-0.89263916,0.4315796,1.203125,1.234375,-2.34375
1695730032200,-0.35839844,-0.895813,0.42596436,-4.015625,-4.171875,0.0625
1695730032245,-0.36328125,-0.89263916,0.39691162,-7.28125,-2.90625,-1.90625
1695730032275,-0.37670898,-0.9053345,0.43719482,0.15625,-2.1875,-1.203125
1695730032319,-0.3791504,-0.88531494,0.40594482,-3.453125,-0.5,0.921875
1695730032364,-0.3696289,-0.88360596,0.42303467,1.140625,1.4375,0.609375
1695730032395,-0.34985352,-0.9072876,0.42523193,-2.03125,-0.546875,-1.03125
1695730032439,-0.36401367,-0.88165283,0.43450928,0.359375,-1.359375,-1.453125
1695730032471,-0.38745117,-0.8933716,0.42303467,-3.515625,-1.65625,-1.21875
1695730032515,-0.39746094,-0.9002075,0.41693115,-0.46875,2.59375,-0.046875
1695730032559,-0.3725586,-0.8777466,0.42889404,-0.875,1.875,0.0625
1695730032589,-0.36987305,-0.8838501,0.42718506,0.8125,0.03125,-0.78125
1695730032638,-0.36914062,-0.8909302,0.43377686,1.8125,0.015625,-0.328125
1695730032679,-0.39575195,-0.8945923,0.43695068,2.21875,-1.125,-1.515625
1695730032709,-0.4033203,-0.90997314,0.45257568,9.78125,13.359375,-4.96875
1695730032754,-0.39013672,-0.9404907,0.40130615,11.328125,19.984375,-2.78125
1695730032786,-0.3701172,-0.90338135,0.371521,14.59375,12.78125,2.015625
1695730032829,-0.28051758,-0.8257446,0.33685303,8.96875,-4.484375,1.953125
1695730032874,-0.3083496,-0.9048462,0.32855225,6.546875,-12.09375,4.796875
1695730032904,-0.33203125,-0.9085083,0.37957764,-0.328125,-6.953125,6.5625
1695730032949,-0.4333496,-0.8743286,0.35882568,-2.59375,-15.953125,4.46875
1695730032994,-0.37548828,-0.9636841,0.39007568,-1.0,-6.515625,1.6875
1695730033023,-0.3779297,-0.9343872,0.38128662,-2.71875,-0.828125,3.265625
1695730033069,-0.39819336,-0.8989868,0.35809326,-0.46875,2.484375,-1.6875
1695730033099,-0.35009766,-0.89190674,0.3546753,0.65625,1.140625,-3.234375
1695730033144,-0.3642578,-0.923645,0.36566162,-0.984375,1.6875,-0.109375
1695730033189,-0.390625,-0.9312134,0.3307495,-1.828125,3.703125,-0.1875
1695730033219,-0.35913086,-0.9175415,0.37005615,-0.296875,4.328125,-2.1875
1695730033266,-0.32543945,-0.8862915,0.3637085,-2.609375,2.9375,-0.328125
1695730033309,-0.38745117,-0.942688,0.39056396,-1.59375,2.4375,1.015625
1695730033339,-0.35766602,-0.92022705,0.37200928,0.390625,3.421875,-2.203125
1695730033383,-0.3149414,-0.87701416,0.35443115,0.15625,1.84375,-2.03125
1695730033414,-0.3400879,-0.9260864,0.3632202,1.34375,1.359375,-0.8125
1695730033459,-0.40551758,-0.9458618,0.37054443,-3.640625,1.671875,0.9375
1695730033504,-0.37719727,-0.9053345,0.3546753,-1.109375,4.28125,-0.421875
1695730033534,-0.33862305,-0.89508057,0.36956787,1.671875,1.9375,-0.984375
1695730033579,-0.3474121,-0.92974854,0.3834839,-3.0625,1.359375,0.171875
1695730033626,-0.36865234,-0.90338135,0.36590576,-2.171875,2.890625,-0.5625
1695730033655,-0.3864746,-0.91778564,0.36566162,-1.296875,0.4375,-0.84375
1695730033699,-0.34448242,-0.9065552,0.37713623,0.71875,3.265625,-1.453125
1695730033744,-0.36499023,-0.9048462,0.38201904,0.1875,3.4375,2.453125
1695730033774,-0.35961914,-0.8887329,0.37493896,-1.84375,-0.359375,-0.484375
1695730033819,-0.36669922,-0.92510986,0.41131592,-2.59375,1.28125,-1.328125
1695730033848,-0.35668945,-0.913147,0.38446045,-5.578125,-0.28125,0.515625
1695730033894,-0.36914062,-0.89508057,0.38104248,-1.15625,-1.921875,0.5
1695730033939,-0.36987305,-0.90631104,0.39056396,0.265625,-1.625,-0.546875
1695730033969,-0.38061523,-0.9209595,0.3973999,-0.03125,2.8125,0.78125
1695730034015,-0.37841797,-0.87579346,0.37005615,-7.671875,4.265625,2.1875
1695730034061,-0.3737793,-0.8826294,0.38226318,-2.828125,0.03125,0.65625
1695730034090,-0.33740234,-0.9170532,0.4081421,-0.3125,0.84375,-0.765625
1695730034134,-0.35302734,-0.91900635,0.41131592,-0.890625,-0.53125,0.796875
1695730034163,-0.3647461,-0.8833618,0.3847046,-1.0,-0.140625,-1.796875
1695730034209,-0.35253906,-0.8928833,0.40203857,2.03125,-0.96875,-1.1875
1695730034256,-0.3876953,-0.9085083,0.40057373,0.8125,-0.453125,-0.296875
1695730034285,-0.37939453,-0.8945923,0.39056396,0.40625,-1.171875,-0.015625
1695730034330,-0.36376953,-0.90826416,0.3920288,1.171875,-0.109375,0.046875
1695730034374,-0.36645508,-0.9072876,0.3998413,-1.90625,-1.5625,-0.5
1695730034404,-0.37597656,-0.89190674,0.37176514,-3.1875,-0.125,-1.515625
1695730034448,-0.3671875,-0.9151001,0.4076538,1.96875,2.828125,0.984375
1695730034477,-0.3930664,-0.913147,0.39569092,-1.609375,1.828125,0.453125
1695730034524,-0.3486328,-0.88653564,0.37786865,-1.34375,3.234375,-1.984375
1695730034568,-0.35473633,-0.9085083,0.4052124,0.15625,2.015625,0.875
1695730034598,-0.36279297,-0.92144775,0.40911865,-0.25,3.5625,0.609375
1695730034644,-0.36743164,-0.9011841,0.39056396,-3.671875,1.21875,0.71875
1695730034723,-0.3540039,-0.8945923,0.41253662,-0.375,1.515625,0.15625
1695730034726,-0.37426758,-0.89849854,0.4154663,-5.21875,0.328125,1.09375
1695730034763,-0.3647461,-0.89068604,0.40618896,-3.421875,1.34375,0.453125
1695730034794,-0.35546875,-0.9055786,0.41522217,-3.0,1.421875,-0.640625
1695730034839,-0.3630371,-0.88946533,0.41741943,-2.328125,1.046875,0.765625
1695730034885,-0.37426758,-0.8777466,0.40545654,-2.921875,0.203125,0.765625
1695730034929,-0.38085938,-0.91192627,0.41571045,-2.453125,0.953125,0.84375
1695730034959,-0.34716797,-0.89312744,0.40716553,-1.484375,2.125,0.328125
1695730035004,-0.35205078,-0.8779907,0.41351318,0.359375,1.5,-0.75
1695730035034,-0.37670898,-0.8911743,0.41107178,-1.859375,0.21875,0.390625
1695730035079,-0.3828125,-0.88067627,0.43914795,1.265625,1.71875,0.15625
1695730035109,-0.38793945,-0.90216064,0.42889404,-1.109375,1.328125,-0.15625
1695730035156,-0.37158203,-0.8862915,0.4249878,-2.0625,4.53125,-0.984375
1695730035200,-0.37573242,-0.8726196,0.432312,-0.53125,2.265625,-1.828125
1695730035229,-0.36767578,-0.8933716,0.4100952,-2.015625,1.65625,-1.59375
1695730035274,-0.35205078,-0.8965454,0.44085693,-0.1875,0.171875,-2.15625
1695730035319,-0.36401367,-0.88287354,0.43597412,1.53125,-0.21875,-4.0625
1695730035350,-0.41992188,-0.8928833,0.48602295,6.640625,8.25,-5.28125
1695730035394,-0.35327148,-0.8970337,0.4142456,7.34375,8.421875,-2.59375
1695730035424,-0.39770508,-0.8838501,0.42669678,11.0625,5.96875,1.421875
1695730035469,-0.36767578,-0.927063,0.43548584,4.125,7.625,-3.640625
1695730035514,-0.37158203,-0.8701782,0.3793335,5.0,0.703125,2.796875
1695730035544,-0.39770508,-0.8557739,0.32196045,8.09375,-8.390625,5.6875
1695730035589,-0.33203125,-0.89923096,0.3842163,4.984375,-6.28125,3.828125
1695730035637,-0.35083008,-0.88482666,0.38201904,-1.953125,-13.0,5.578125
1695730035665,-0.41723633,-0.8953247,0.3673706,-3.421875,-19.484375,7.140625
1695730035709,-0.37353516,-0.9468384,0.40594482,-3.828125,-4.21875,-0.59375
1695730035739,-0.3642578,-0.9380493,0.35101318,-4.96875,0.140625,-1.796875
1695730035787,-0.3881836,-0.9072876,0.38616943,-0.875,2.328125,-1.09375
1695730035829,-0.3647461,-0.9085083,0.38128662,-0.390625,2.421875,-0.5625
1695730035860,-0.38256836,-0.9011841,0.35101318,-2.828125,1.578125,-0.265625
1695730035903,-0.38427734,-0.8887329,0.3612671,-0.078125,0.5625,1.359375
1695730035950,-0.36743164,-0.90045166,0.3925171,0.71875,-1.125,1.5625
1695730035979,-0.3959961,-0.9092407,0.39398193,0.03125,-4.765625,3.1875
1695730036024,-0.3918457,-0.8977661,0.37078857,-7.515625,-0.875,2.296875
1695730036054,-0.36743164,-0.9126587,0.3908081,-2.21875,1.59375,-1.4375
1695730036100,-0.3864746,-0.9273071,0.3834839,-1.640625,0.890625,-0.84375
1695730036145,-0.36547852,-0.88653564,0.36395264,0.328125,2.75,-0.296875
1695730036174,-0.35253906,-0.8965454,0.37322998,-1.859375,1.09375,1.078125
1695730036219,-0.37939453,-0.9248657,0.40252686,0.703125,0.71875,-1.21875
1695730036265,-0.38452148,-0.90338135,0.385437,-1.59375,1.828125,0.1875
1695730036294,-0.35498047,-0.88165283,0.36468506,0.796875,1.71875,0.65625
1695730036339,-0.35205078,-0.9043579,0.39276123,0.515625,0.5,-1.25
1695730036371,-0.39135742,-0.928772,0.3883667,-1.546875,1.25,-0.390625
1695730036414,-0.38134766,-0.8911743,0.3944702,-2.890625,-0.921875,1.4375
1695730036459,-0.37280273,-0.8899536,0.3685913,-8.765625,-0.578125,0.328125
1695730036536,-0.3515625,-0.9204712,0.40179443,-1.25,0.75,-1.296875
1695730036540,-0.37402344,-0.9248657,0.41888428,-0.625,0.46875,2.78125
1695730036579,-0.33618164,-0.8735962,0.3764038,0.15625,1.046875,0.15625
1695730036609,-0.39233398,-0.8909302,0.38641357,0.09375,1.015625,-0.46875
1695730036655,-0.3881836,-0.89508057,0.39935303,0.609375,0.96875,1.390625
1695730036683,-0.37353516,-0.9170532,0.4225464,-2.40625,2.09375,1.625
1695730036729,-0.35717773,-0.88116455,0.38323975,-3.15625,2.703125,0.25
1695730036774,-0.36132812,-0.8880005,0.4003296,-0.46875,1.796875,-1.265625
1695730036804,-0.36157227,-0.9138794,0.43084717,-1.296875,0.6875,0.734375
1695730036865,-0.38085938,-0.89385986,0.40960693,-1.953125,1.0,0.4375
1695730036899,-0.37280273,-0.897522,0.4015503,-0.359375,2.234375,0.796875
1695730036940,-0.35546875,-0.9031372,0.40570068,-3.640625,1.890625,0.875
1695730036969,-0.34448242,-0.8904419,0.41644287,-0.25,1.671875,0.6875
1695730036998,-0.38549805,-0.9006958,0.40716553,-0.828125,0.453125,1.90625
1695730037044,-0.3791504,-0.8909302,0.4196167,-0.921875,1.015625,-0.390625
1695730037089,-0.34545898,-0.90338135,0.4093628,-0.75,2.1875,0.125
1695730037119,-0.36572266,-0.8977661,0.4100952,-1.0,2.921875,1.015625
1695730037164,-0.3605957,-0.90093994,0.42132568,3.203125,-0.0625,-0.28125
1695730037209,-0.3720703,-0.9077759,0.40594482,-2.6875,2.46875,1.6875
1695730037238,-0.3544922,-0.88946533,0.40325928,-5.46875,3.4375,0.890625
1695730037284,-0.35351562,-0.90460205,0.43621826,-1.0,2.828125,-0.21875
1695730037314,-0.34155273,-0.8875122,0.41619873,-0.859375,1.484375,-0.375
1695730037358,-0.33789062,-0.8933716,0.41644287,-1.828125,1.5,-1.625
1695730037403,-0.37231445,-0.90093994,0.4328003,-0.3125,3.40625,-0.296875
1695730037435,-0.36889648,-0.880188,0.43060303,0.0,2.40625,0.78125
1695730037478,-0.3359375,-0.8916626,0.40740967,-0.0625,2.34375,1.140625
1695730037524,-0.32788086,-0.9092407,0.44281006,1.9375,0.578125,0.359375
1695730037554,-0.34985352,-0.9104614,0.4208374,0.59375,1.1875,1.75
1695730037599,-0.35766602,-0.8933716,0.4225464,-2.15625,2.0,1.9375
1695730037659,-0.3166504,-0.8845825,0.4196167,-0.4375,1.390625,0.34375
1695730037673,-0.33398438,-0.90826416,0.42767334,-2.28125,0.328125,2.6875
1695730037719,-0.328125,-0.9026489,0.4232788,0.046875,-1.625,1.8125
1695730037751,-0.33520508,-0.89508057,0.43304443,-1.234375,-4.0,2.5
1695730037793,-0.35913086,-0.9092407,0.4081421,-1.53125,0.84375,4.328125
1695730037841,-0.37426758,-0.89678955,0.41888428,2.890625,1.4375,5.0
1695730037871,-0.3395996,-0.880188,0.4154663,1.078125,2.359375,3.40625
1695730037929,-0.28979492,-0.8887329,0.41131592,1.03125,0.328125,4.4375
1695730037958,-0.2475586,-0.8921509,0.42645264,4.25,-12.421875,1.015625
1695730037989,-0.31982422,-0.95562744,0.39544678,0.546875,-9.28125,8.671875
1695730038035,-0.421875,-0.97613525,0.4039917,0.1875,5.78125,12.53125
1695730038065,-0.35986328,-0.8870239,0.3949585,1.625,4.359375,3.890625
1695730038109,-0.234375,-0.84381104,0.36541748,5.390625,4.421875,1.796875
1695730038154,-0.19091797,-0.9241333,0.44158936,7.34375,-1.25,0.6875
1695730038184,-0.32592773,-0.9915161,0.41864014,-0.171875,0.8125,3.203125
1695730038229,-0.4177246,-0.92852783,0.3710327,2.03125,5.90625,-0.703125
1695730038274,-0.34692383,-0.90802,0.37713623,5.1875,8.34375,-3.625
1695730038304,-0.23095703,-0.9277954,0.40008545,1.328125,7.21875,-2.25
1695730038349,-0.22436523,-0.92974854,0.39300537,-0.734375,6.1875,0.265625
1695730038379,-0.3088379,-0.9365845,0.38812256,-2.984375,2.34375,-0.890625
1695730038424,-0.36889648,-0.9307251,0.39007568,-3.03125,3.421875,-2.71875
1695730038469,-0.3161621,-0.9048462,0.39837646,-5.046875,4.390625,-4.203125
1695730038499,-0.24365234,-0.9258423,0.38616943,0.5,4.40625,-5.46875
1695730038544,-0.2692871,-0.9507446,0.4262085,-3.109375,4.0625,-3.25
1695730038589,-0.31274414,-0.9072876,0.39105225,-2.90625,1.578125,-1.875
1695730038619,-0.31225586,-0.93170166,0.40130615,-3.078125,1.71875,-2.296875
1695730038664,-0.27783203,-0.9158325,0.3973999,-5.046875,3.5625,-3.546875
1695730038693,-0.33691406,-0.9248657,0.4237671,-2.0,2.46875,-0.59375
1695730038738,-0.3161621,-0.90826416,0.40179443,-3.078125,2.703125,-3.25
1695730038784,-0.29858398,-0.8999634,0.4257202,0.015625,2.8125,-5.296875
1695730038816,-0.3178711,-0.91119385,0.4303589,-5.875,3.5,-1.234375
1695730038859,-0.31884766,-0.89190674,0.43133545,-2.765625,1.984375,-3.421875
1695730038907,-0.34838867,-0.9036255,0.4381714,-2.40625,2.90625,-3.5625
1695730038934,-0.2993164,-0.8897095,0.4574585,-1.078125,2.875,-1.515625
1695730038995,-0.31323242,-0.86383057,0.42669678,-4.296875,0.859375,-1.0625
1695730039010,-0.32958984,-0.9060669,0.43841553,-0.53125,0.25,-1.28125
1695730039069,-0.34277344,-0.91729736,0.45916748,4.140625,1.21875,1.640625
1695730039099,-0.33935547,-0.85894775,0.41937256,-1.53125,-2.234375,2.1875
1695730039129,-0.32617188,-0.90167236,0.43499756,2.703125,-1.625,0.265625
1695730039174,-0.31347656,-0.9402466,0.45770264,1.453125,-4.40625,1.234375
1695730039219,-0.36376953,-0.8838501,0.4335327,0.5,-2.140625,0.890625
1695730039250,-0.375,-0.89508057,0.42840576,1.625,0.3125,0.421875
1695730039295,-0.3161621,-0.9036255,0.4406128,2.21875,0.203125,-0.09375
1695730039340,-0.3359375,-0.8999634,0.4376831,0.0,1.46875,0.84375
1695730039370,-0.359375,-0.9024048,0.43475342,0.484375,3.0625,0.953125
1695730039416,-0.3244629,-0.8831177,0.41693115,-1.203125,2.3125,0.859375
1695730039445,-0.30981445,-0.89263916,0.43450928,-1.375,2.234375,-0.09375
1695730039489,-0.32910156,-0.9194946,0.42840576,0.484375,3.671875,2.6875
1695730039535,-0.30444336,-0.89971924,0.42352295,3.796875,3.046875,3.21875
1695730039564,-0.3010254,-0.9055786,0.40081787,-0.96875,-0.984375,4.625
1695730039609,-0.2775879,-0.9092407,0.38568115,4.03125,0.703125,5.203125
1695730039639,-0.26489258,-0.9282837,0.42181396,9.4375,-2.296875,7.59375
1695730039684,-0.3149414,-0.9170532,0.41571045,4.390625,-5.453125,11.03125
1695730039730,-0.30786133,-0.89508057,0.39935303,8.265625,-2.53125,9.5625
1695730039758,-0.31079102,-0.91900635,0.3847046,7.96875,0.828125,8.0625
1695730039804,-0.2956543,-0.9534302,0.38153076,10.71875,4.53125,5.359375
1695730039851,-0.3112793,-0.92437744,0.37249756,4.53125,-0.796875,1.75
1695730039878,-0.2854004,-0.96417236,0.3685913,6.453125,4.296875,2.359375
1695730039924,-0.26708984,-0.9649048,0.37200928,-1.46875,4.140625,-2.375
1695730039955,-0.25,-0.960022,0.36932373,0.578125,-0.09375,-4.0
1695730039999,-0.26000977,-0.9837036,0.39031982,-4.71875,4.3125,-3.34375
1695730040044,-0.25854492,-0.92437744,0.41204834,-5.34375,-4.03125,-4.15625
1695730040076,-0.28442383,-0.8845825,0.33831787,-9.984375,-1.0625,-10.140625
1695730040120,-0.36791992,-0.9678345,0.43597412,9.8125,12.296875,-11.59375
1695730040166,-0.34545898,-1.036438,0.3595581,-12.484375,15.9375,-4.671875
1695730040196,-0.21875,-0.94659424,0.32904053,20.09375,18.875,-8.84375
1695730040239,-0.19360352,-0.91900635,0.3788452,1.21875,3.765625,-2.265625
1695730040269,-0.25439453,-0.911438,0.2802124,-13.421875,-14.96875,0.46875
1695730040316,-0.2709961,-0.95758057,0.2819214,-3.09375,-18.21875,0.375
1695730040361,-0.3010254,-0.94903564,0.23529053,2.625,-23.21875,10.71875
1695730040389,-0.31323242,-0.91070557,0.30218506,1.703125,-15.671875,11.46875
1695730040433,-0.3310547,-0.8567505,0.3156128,-10.28125,-28.546875,10.359375
1695730040479,-0.34716797,-1.0166626,0.34588623,-2.390625,-17.671875,5.421875
1695730040509,-0.2619629,-0.9990845,0.39007568,-7.171875,-3.578125,3.796875
1695730040554,-0.37182617,-0.91973877,0.3427124,-5.171875,-4.53125,3.484375
1695730040586,-0.37890625,-0.90826416,0.27459717,-3.28125,-2.21875,1.0625
1695730040630,-0.1875,-0.88409424,0.28338623,-2.046875,-8.609375,2.1875
1695730040675,-0.16723633,-0.96710205,0.4244995,2.9375,-14.765625,5.859375
1695730040719,-0.38623047,-0.9673462,0.36810303,-6.21875,-18.265625,8.640625
1695730040748,-0.45947266,-0.925354,0.31610107,-4.046875,-11.671875,3.796875
1695730040795,-0.3317871,-0.90826416,0.3319702,-5.03125,-7.421875,1.703125
1695730040824,-0.26367188,-0.93170166,0.36273193,-1.0,-4.71875,3.9375
1695730040869,-0.26367188,-0.9324341,0.3456421,-2.53125,-5.40625,2.890625
1695730040899,-0.29516602,-0.95977783,0.35882568,3.203125,-9.421875,6.921875
1695730040944,-0.29418945,-0.925354,0.39715576,-4.21875,0.25,3.609375
1695730040989,-0.33276367,-0.91070557,0.32562256,-1.078125,2.234375,-0.46875
1695730041019,-0.3347168,-0.9265747,0.3703003,-1.46875,3.859375,1.765625
1695730041065,-0.28442383,-0.9336548,0.38861084,-4.921875,-1.109375,-2.46875
1695730041109,-0.31713867,-0.942688,0.39593506,0.3125,4.640625,-4.796875
1695730041139,-0.28588867,-0.9224243,0.3925171,-5.25,9.203125,-3.46875
1695730041186,-0.27172852,-0.9373169,0.39520264,-0.15625,9.5,-0.890625
1695730041229,-0.2626953,-0.92803955,0.38861084,-2.40625,6.65625,-0.71875
1695730041259,-0.24023438,-0.9229126,0.39666748,4.265625,3.203125,-0.453125
1695730041304,-0.28637695,-0.93585205,0.41278076,-0.203125,2.578125,0.78125
1695730041334,-0.29492188,-0.9365845,0.42669678,-3.40625,7.65625,-0.953125
1695730041379,-0.29296875,-0.9072876,0.41815186,-3.84375,9.234375,-5.859375
1695730041425,-0.3173828,-0.9072876,0.40838623,-1.46875,9.421875,-8.359375
1695730041454,-0.3059082,-0.91070557,0.41815186,-2.78125,12.15625,-7.8125
1695730041498,-0.31762695,-0.9246216,0.44525146,-0.28125,12.53125,-8.171875
1695730041542,-0.30932617,-0.91607666,0.42303467,0.875,12.515625,-7.546875
1695730041572,-0.28125,-0.90753174,0.43426514,3.21875,15.625,-2.484375
1695730041621,-0.26171875,-0.92144775,0.40740967,2.03125,15.9375,-1.3125
1695730041648,-0.28051758,-0.9343872,0.43450928,6.359375,12.15625,-2.34375
1695730041694,-0.32177734,-0.87823486,0.3998413,1.109375,9.578125,-3.03125
1695730041741,-0.32763672,-0.85943604,0.35906982,1.171875,14.203125,-4.5625
1695730041769,-0.32080078,-0.956604,0.39764404,2.421875,17.203125,-6.375
1695730041819,-0.3083496,-0.960022,0.37982178,7.796875,16.453125,-7.234375
1695730041861,-0.2709961,-0.92266846,0.36541748,2.203125,21.34375,-6.90625
1695730041890,-0.29589844,-0.87628174,0.371521,10.09375,16.921875,-4.484375
1695730041933,-0.29907227,-0.93463135,0.3932495,8.84375,14.84375,-5.703125
1695730041963,-0.3334961,-0.9397583,0.38568115,8.546875,16.1875,-5.828125
1695730042009,-0.3347168,-0.9133911,0.36346436,10.96875,14.875,-6.453125
1695730042056,-0.3100586,-0.9121704,0.33636475,11.046875,13.9375,-8.875
1695730042084,-0.2980957,-0.93634033,0.3583374,12.828125,15.046875,-7.53125
1695730042129,-0.3190918,-0.94610596,0.354187,16.171875,11.765625,-6.109375
1695730042205,-0.36767578,-0.9324341,0.3546753,15.46875,21.625,-11.1875
1695730042208,-0.38427734,-0.94537354,0.33929443,18.078125,29.125,-14.296875
1695730042250,-0.4074707,-0.9714966,0.277771,17.5,30.78125,-9.6875
1695730042278,-0.29858398,-0.9055786,0.23675537,9.015625,21.84375,-6.78125
1695730042323,-0.30395508,-0.95758057,0.22918701,14.515625,10.25,-6.90625
1695730042369,-0.31152344,-0.98443604,0.2584839,14.34375,13.765625,-2.765625
1695730042399,-0.2902832,-0.8809204,0.22943115,12.0625,5.78125,2.03125
1695730042459,-0.2944336,-0.9277954,0.19378662,14.671875,-4.0,5.9375
1695730042488,-0.29467773,-0.98931885,0.28363037,7.40625,-7.859375,7.96875
1695730042518,-0.359375,-1.0244751,0.29852295,0.890625,-0.890625,4.578125
1695730042564,-0.38378906,-0.98272705,0.184021,-2.875,3.171875,-4.296875
1695730042593,-0.34423828,-0.9143677,0.19329834,0.828125,-2.71875,2.59375
1695730042638,-0.24414062,-0.9795532,0.24212646,-3.1875,-3.8125,1.484375
1695730042685,-0.33520508,-0.99224854,0.23236084,-5.0625,-6.765625,-0.859375
1695730042716,-0.37036133,-0.9451294,0.2140503,-7.921875,-5.0,-2.234375
1695730042758,-0.30566406,-0.9475708,0.23431396,-10.6875,-8.828125,-3.46875
1695730042804,-0.2944336,-0.9570923,0.24285889,-8.578125,-11.125,-1.015625
1695730042835,-0.32763672,-0.9360962,0.22161865,-11.5,-12.9375,-0.109375
1695730042879,-0.3408203,-0.95196533,0.24163818,-12.359375,-16.546875,-1.03125
1695730042908,-0.3540039,-0.95977783,0.26654053,-13.0,-17.859375,-1.328125
1695730042960,-0.3935547,-0.9373169,0.25946045,-14.375,-19.78125,0.78125
1695730042998,-0.36108398,-0.9414673,0.2694702,-13.84375,-15.59375,0.40625
1695730043028,-0.37280273,-0.96759033,0.2518921,-18.5625,-16.375,0.765625
1695730043073,-0.34423828,-0.90948486,0.26263428,-10.984375,-16.203125,5.8125
1695730043117,-0.32861328,-0.9404907,0.26776123,-3.28125,-25.765625,14.90625
1695730043148,-0.38720703,-0.97247314,0.33294678,-3.265625,-21.328125,10.09375
1695730043193,-0.3696289,-0.8989868,0.25506592,-9.890625,-27.328125,11.515625
1695730043223,-0.34985352,-0.9495239,0.3168335,3.96875,-26.6875,17.125
1695730043267,-0.3088379,-0.93536377,0.2855835,-17.765625,-36.765625,18.03125
1695730043314,-0.31274414,-0.9854126,0.28826904,-14.875,-25.90625,13.9375
1695730043343,-0.32641602,-1.0064087,0.31243896,-12.796875,-23.609375,12.640625
1695730043388,-0.3322754,-0.94122314,0.2662964,-11.28125,-19.421875,17.046875
1695730043433,-0.28393555,-0.91973877,0.30462646,-14.125,-15.59375,14.671875
1695730043462,-0.3005371,-0.9492798,0.34051514,-14.71875,-20.578125,14.84375
1695730043508,-0.27124023,-0.8887329,0.3163452,-14.25,-16.28125,11.84375
1695730043538,-0.31518555,-0.93927,0.3788452,-9.328125,-13.125,8.328125
1695730043585,-0.28710938,-0.97003174,0.3258667,-10.4375,-10.15625,5.640625
1695730043628,-0.28173828,-0.90948486,0.39520264,-2.078125,-3.3125,-0.4375
1695730043658,-0.31469727,-0.9151001,0.36273193,-1.734375,-1.671875,0.765625
1695730043702,-0.2331543,-0.93463135,0.3751831,-0.4375,4.796875,0.359375
1695730043747,-0.25708008,-0.9194946,0.39959717,-1.78125,3.453125,-2.46875
1695730043777,-0.3071289,-0.95440674,0.39227295,-1.171875,5.3125,-3.34375
1695730043822,-0.26757812,-0.8850708,0.3908081,-1.796875,4.21875,-4.5625
1695730043853,-0.22167969,-0.91363525,0.39398193,-2.734375,6.609375,-6.828125
1695730043899,-0.27026367,-0.96173096,0.4100952,4.5625,11.3125,-1.25
1695730043945,-0.33666992,-0.93634033,0.416687,4.625,14.734375,-0.71875
1695730043973,-0.2668457,-0.9077759,0.36175537,4.34375,12.609375,-9.96875
1695730044019,-0.24438477,-0.9216919,0.39569092,7.265625,17.203125,-7.234375
1695730044063,-0.28076172,-0.9326782,0.416687,6.28125,15.875,-5.203125
1695730044095,-0.3178711,-0.9146118,0.3776245,1.21875,14.734375,-9.578125
1695730044141,-0.32470703,-0.9019165,0.31951904,-0.796875,16.4375,-9.6875
1695730044170,-0.23754883,-0.94659424,0.32806396,4.90625,23.703125,-15.0625
1695730044215,-0.24975586,-0.9993286,0.41107178,9.59375,23.84375,-14.3125
1695730044259,-0.32543945,-0.9680786,0.3661499,11.125,25.109375,-9.6875
1695730044289,-0.31176758,-0.97906494,0.34979248,6.703125,16.71875,-8.796875
1695730044333,-0.29760742,-0.9529419,0.32000732,12.59375,26.03125,-12.5625
1695730044379,-0.27172852,-0.88360596,0.25164795,21.578125,6.21875,-2.5625
1695730044408,-0.23608398,-0.892395,0.26239014,15.890625,6.625,2.65625
1695730044453,-0.2565918,-0.954895,0.35198975,6.1875,-0.015625,4.96875
1695730044484,-0.35131836,-0.97198486,0.3234253,-6.640625,-14.421875,5.8125
1695730044527,-0.28320312,-1.0115356,0.30291748,-6.015625,-2.203125,1.734375
1695730044573,-0.21655273,-1.0149536,0.33343506,3.265625,5.828125,0.015625
1695730044603,-0.31030273,-0.94073486,0.28240967,-4.03125,-1.734375,3.625
1695730044648,-0.2631836,-0.92510986,0.25238037,0.171875,-4.890625,5.046875
1695730044695,-0.2631836,-0.9619751,0.30389404,3.875,-9.703125,5.03125
1695730044724,-0.30395508,-0.97857666,0.33050537,-3.625,-12.484375,3.3125
1695730044768,-0.30786133,-0.96710205,0.307312,-7.625,-10.4375,2.296875
1695730044798,-0.33789062,-0.9224243,0.31756592,-8.03125,-10.9375,1.640625
1695730044845,-0.31567383,-0.9241333,0.2975464,-5.21875,-9.609375,1.84375
1695730044889,-0.29516602,-0.93878174,0.33172607,-7.890625,-5.953125,1.8125
1695730044918,-0.31835938,-0.94976807,0.32269287,-2.90625,-2.09375,0.3125
1695730044964,-0.31713867,-0.95440674,0.309021,-5.859375,-0.015625,1.453125
1695730045009,-0.3034668,-0.93878174,0.3053589,-3.71875,-1.625,0.484375
1695730045039,-0.29174805,-0.9307251,0.33807373,-0.609375,-3.03125,0.171875
1695730045085,-0.30371094,-0.9356079,0.3397827,-3.640625,-2.46875,-2.15625
1695730045130,-0.3413086,-0.9282837,0.3065796,-2.90625,2.390625,-1.015625
1695730045159,-0.31860352,-0.9343872,0.34246826,-0.171875,3.625,-2.328125
1695730045204,-0.29638672,-0.94537354,0.34906006,-0.90625,4.765625,-0.828125
1695730045234,-0.3022461,-0.9368286,0.32659912,-1.875,7.484375,-0.46875
1695730045279,-0.3017578,-0.928772,0.33587646,-1.28125,5.109375,-3.9375
1695730045324,-0.30029297,-0.94781494,0.36663818,1.546875,5.25,-0.5
1695730045354,-0.28857422,-0.93096924,0.31658936,-1.53125,5.875,0.078125
1695730045398,-0.27319336,-0.94000244,0.322937,0.96875,3.828125,-2.171875
1695730045476,-0.36816406,-0.9949341,0.36688232,-20.96875,7.625,1.265625
1695730045478,-0.18481445,-0.8904419,0.2897339,-10.046875,18.84375,-5.90625
1695730045518,-0.22485352,-1.0095825,0.45281982,9.859375,24.03125,-8.5
1695730045551,-0.35668945,-0.8880005,0.449646,10.625,10.53125,-4.078125
1695730045608,-0.36010742,-0.90411377,0.36273193,1.890625,-2.515625,-0.171875
1695730045637,-0.27001953,-0.85357666,0.3661499,-1.859375,-9.4375,1.421875
1695730045667,-0.22729492,-0.9636841,0.3678589,-10.53125,-1.34375,-0.296875
1695730045716,-0.32470703,-1.036438,0.3920288,6.171875,0.546875,0.015625
1695730045760,-0.35473633,-0.88897705,0.3817749,7.609375,-5.921875,4.046875
1695730045789,-0.32861328,-0.85113525,0.32733154,-7.28125,-3.8125,4.875
1695730045834,-0.24316406,-1.0151978,0.41253662,1.125,-1.25,1.4375
1695730045864,-0.24365234,-0.9602661,0.36517334,-3.671875,-3.4375,1.46875
1695730045909,-0.2890625,-0.87701416,0.32611084,-2.484375,-5.125,0.765625
1695730045954,-0.31811523,-0.9378052,0.38739014,2.0625,-1.21875,1.515625
1695730045985,-0.30786133,-0.93292236,0.35882568,-1.34375,2.765625,3.046875
1695730046028,-0.31030273,-0.925354,0.40179443,-2.171875,-2.90625,-0.828125
1695730046074,-0.28930664,-0.9439087,0.40618896,0.765625,-3.0,-0.640625
1695730046103,-0.32983398,-0.8875122,0.3361206,-5.40625,3.625,-1.90625
1695730046149,-0.26879883,-0.9331665,0.36566162,-1.0,5.8125,-1.71875
1695730046179,-0.29663086,-0.9495239,0.4303589,3.21875,0.125,0.515625
1695730046223,-0.328125,-0.8838501,0.35369873,-1.25,0.171875,-1.0
1695730046269,-0.30444336,-0.9378052,0.40325928,-2.84375,3.078125,-0.46875
1695730046299,-0.2927246,-0.94000244,0.38885498,-0.671875,3.125,0.0
1695730046343,-0.31762695,-0.90338135,0.37420654,-1.375,2.140625,-1.390625
1695730046389,-0.30004883,-0.9168091,0.39056396,1.65625,3.3125,-1.46875
1695730046419,-0.29638672,-0.9402466,0.38909912,-1.84375,6.734375,2.140625
1695730046464,-0.26513672,-0.9463501,0.40423584,1.59375,4.390625,-0.578125
1695730046495,-0.3076172,-0.9048462,0.37786865,-0.578125,0.1875,0.984375
1695730046538,-0.3359375,-0.8821411,0.36761475,-0.359375,4.078125,1.0625
1695730046585,-0.30859375,-0.95880127,0.40325928,3.46875,5.9375,-1.9375
1695730046614,-0.25708008,-0.94976807,0.39398193,3.625,5.640625,-2.6875
1695730046659,-0.2932129,-0.9102173,0.34979248,4.25,1.0625,-3.140625
1695730046704,-0.29638672,-0.9468384,0.36151123,4.5,4.015625,-2.578125
1695730046734,-0.3095703,-0.9546509,0.37664795,5.734375,2.734375,-1.421875
1695730046779,-0.31835938,-0.92388916,0.3439331,1.421875,6.171875,-4.125
1695730046809,-0.30859375,-0.92633057,0.33294678,6.453125,3.609375,-1.90625
1695730046854,-0.29614258,-0.9522095,0.33953857,3.921875,6.953125,-2.96875
1695730046899,-0.3034668,-0.9541626,0.33709717,5.984375,1.875,-1.953125
1695730046929,-0.3334961,-0.92926025,0.31365967,4.53125,6.84375,-1.46875
1695730046974,-0.3708496,-0.8765259,0.28607178,2.234375,4.828125,-3.640625
1695730047019,-0.34985352,-0.9534302,0.3287964,7.6875,5.625,-5.921875
1695730047048,-0.29370117,-0.96954346,0.29315186,4.53125,8.09375,-2.609375
1695730047095,-0.2783203,-0.9006958,0.2765503,7.015625,4.03125,1.625
1695730047124,-0.2783203,-0.9898071,0.3336792,7.265625,9.078125,2.5
1695730047169,-0.28466797,-0.99468994,0.32025146,4.71875,5.640625,4.203125
1695730047214,-0.34545898,-0.9282837,0.2855835,0.28125,10.375,2.234375
1695730047245,-0.31835938,-0.9265747,0.29412842,6.171875,6.578125,2.75
1695730047290,-0.32055664,-0.9307251,0.2814331,-3.171875,2.65625,1.78125
1695730047334,-0.27416992,-0.98394775,0.2921753,-0.828125,7.171875,-3.203125
1695730047364,-0.2980957,-0.9927368,0.33538818,1.3125,5.09375,2.359375
1695730047410,-0.24804688,-0.90045166,0.26190186,-2.078125,6.0625,3.671875
1695730047438,-0.26464844,-0.98638916,0.34051514,-1.375,0.15625,1.28125
1695730047483,-0.3383789,-0.9783325,0.307312,-5.953125,-0.921875,4.03125
1695730047529,-0.3503418,-0.91119385,0.2802124,-2.75,0.03125,-2.5625
1695730047559,-0.30493164,-0.940979,0.31219482,-1.453125,-0.296875,-6.25
1695730047604,-0.31982422,-0.9458618,0.3085327,0.625,-7.625,-5.984375
1695730047650,-0.36132812,-0.9319458,0.3024292,0.25,-11.984375,-9.40625
1695730047679,-0.3564453,-0.94854736,0.29412842,-4.5,-9.375,-7.4375
1695730047724,-0.39916992,-0.92633057,0.34197998,10.765625,-5.859375,-9.46875
1695730047754,-0.42651367,-0.99884033,0.322937,11.625,8.59375,-12.3125
1695730047799,-0.35009766,-0.9011841,0.20477295,5.09375,-0.078125,0.40625
1695730047844,-0.35083008,-0.8948364,0.18548584,-1.296875,-17.546875,3.859375
1695730047875,-0.25756836,-0.9170532,0.15789795,11.0625,-14.25,2.609375
1695730047919,-0.3786621,-0.93170166,0.29315186,1.046875,-20.734375,14.515625
1695730047963,-0.46289062,-0.911438,0.18353271,-11.46875,-16.171875,5.46875
1695730047993,-0.32543945,-1.005188,0.26239014,-4.265625,-15.90625,6.609375
1695730048039,-0.32055664,-0.98394775,0.26287842,-4.703125,-4.40625,3.6875
1695730048069,-0.32055664,-0.93048096,0.21844482,1.21875,-3.6875,5.15625
1695730048113,-0.33007812,-0.9522095,0.26287842,-7.09375,-8.0,12.421875
1695730048159,-0.35424805,-0.98150635,0.25360107,-3.4375,-6.265625,4.828125
1695730048189,-0.3293457,-0.96466064,0.2506714,-7.0625,-5.671875,7.40625
1695730048233,-0.24414062,-0.94366455,0.26239014,-6.234375,-5.125,6.90625
1695730048279,-0.2631836,-1.0046997,0.28411865,-7.921875,-5.1875,8.75
1695730048310,-0.28344727,-0.95684814,0.26971436,-4.609375,-5.4375,11.53125
1695730048355,-0.22875977,-0.97491455,0.28851318,-10.1875,-3.140625,10.75
1695730048385,-0.2434082,-0.9470825,0.27850342,-2.90625,-8.5,10.78125
1695730048429,-0.25024414,-0.96588135,0.3319702,-5.109375,-2.984375,11.03125
1695730048474,-0.2705078,-0.9776001,0.34613037,-6.78125,-2.8125,5.203125
1695730048504,-0.2668457,-0.94781494,0.3156128,-9.515625,-6.640625,-0.5625
1695730048549,-0.21557617,-0.9241333,0.3217163,-7.390625,1.046875,-3.109375
1695730048594,-0.18652344,-0.9573364,0.37225342,-10.140625,2.234375,0.671875
1695730048625,-0.19067383,-0.9402466,0.35198975,-8.4375,-4.25,-0.734375
1695730048669,-0.22265625,-0.96417236,0.35491943,-5.109375,-4.140625,-4.28125
1695730048716,-0.21850586,-0.9627075,0.36688232,-8.109375,-1.1875,-2.734375
1695730048744,-0.27246094,-0.9138794,0.3768921,-14.3125,-5.078125,-3.09375
1695730048788,-0.33081055,-0.9631958,0.39593506,-12.75,-0.671875,-4.5
1695730048818,-0.32128906,-0.9663696,0.39593506,-12.0,-0.390625,-3.140625
1695730048864,-0.23510742,-0.8430786,0.37347412,-8.65625,7.9375,-3.34375
1695730048909,-0.25512695,-0.89263916,0.3348999,-9.5,9.75,3.296875
1695730048939,-0.20166016,-0.99713135,0.46502686,-0.625,9.4375,1.59375
1695730048986,-0.23071289,-0.89508057,0.47161865,-5.21875,8.859375,-2.203125
1695730049031,-0.29663086,-0.85723877,0.46258545,-0.046875,10.046875,2.703125
1695730049061,-0.28564453,-0.881897,0.44329834,-4.578125,10.046875,3.96875
1695730049108,-0.2319336,-0.98028564,0.5216675,5.25,5.40625,0.484375
1695730049135,-0.22021484,-0.909729,0.4328003,-2.46875,4.484375,0.65625
1695730049179,-0.22875977,-0.8706665,0.45965576,-0.6875,4.234375,4.359375
1695730049225,-0.2548828,-0.9805298,0.4664917,-3.546875,3.046875,0.828125
1695730049254,-0.1784668,-0.9224243,0.48773193,0.328125,7.859375,1.375
1695730049299,-0.14404297,-0.8665161,0.45721436,-0.640625,5.046875,3.296875
1695730049348,-0.23535156,-0.9260864,0.47772217,0.25,0.5625,1.671875
1695730049374,-0.2770996,-0.9529419,0.48114014,-1.484375,0.296875,-0.84375
1695730049420,-0.29370117,-0.9158325,0.44036865,-2.859375,4.59375,-1.875
1695730049448,-0.2253418,-0.90289307,0.44622803,-0.390625,4.265625,-4.109375
1695730049495,-0.16259766,-0.9126587,0.4862671,-2.3125,2.203125,-1.984375
1695730049539,-0.23413086,-0.9126587,0.46917725,-3.453125,1.734375,-0.34375
1695730049569,-0.23144531,-0.9260864,0.46820068,-2.671875,1.328125,-3.53125
1695730049615,-0.24072266,-0.9019165,0.47698975,-0.375,-0.75,-3.421875
1695730049696,-0.2434082,-0.9102173,0.45526123,-1.421875,2.03125,-1.4375
1695730049700,-0.22094727,-0.91192627,0.48138428,-1.171875,0.921875,-2.28125
1695730049733,-0.24560547,-0.9085083,0.46624756,-0.109375,-1.5625,-3.625
1695730049763,-0.25463867,-0.91900635,0.45526123,0.03125,1.6875,-1.203125
1695730049808,-0.21118164,-0.8740845,0.46087646,-2.90625,0.890625,0.671875
1695730049853,-0.22192383,-0.9290161,0.4743042,-0.75,2.09375,-2.4375
1695730049883,-0.23339844,-0.8892212,0.46673584,-2.96875,3.203125,-0.296875
1695730049929,-0.2253418,-0.8677368,0.49505615,0.65625,-1.609375,0.4375
1695730049974,-0.3684082,-0.9446411,0.44354248,0.625,-2.578125,-5.6875
1695730050004,-0.38500977,-0.9024048,0.45306396,4.640625,-0.625,-10.15625
1695730050049,-0.32714844,-0.8843384,0.45721436,7.4375,1.546875,-11.703125
1695730050080,-0.34960938,-0.94610596,0.41986084,6.890625,5.265625,-11.875
1695730050124,-0.3046875,-0.89801025,0.38934326,10.0625,5.03125,-8.125
1695730050168,-0.25341797,-0.90045166,0.4142456,11.625,5.21875,-5.6875
1695730050197,-0.26782227,-0.93829346,0.4093628,12.25,0.671875,-6.15625
1695730050243,-0.30664062,-0.9121704,0.38616943,11.5625,-1.53125,-2.734375
1695730050289,-0.32836914,-0.9590454,0.39959717,9.390625,2.234375,-5.171875
1695730050318,-0.3269043,-0.95806885,0.38641357,10.0625,-0.59375,-5.53125
1695730050364,-0.25952148,-0.87384033,0.33026123,4.75,1.3125,2.015625
1695730050394,-0.30151367,-0.9356079,0.35809326,5.921875,0.03125,1.796875
1695730050439,-0.34228516,-0.9932251,0.37200928,5.15625,-2.625,3.46875
1695730050485,-0.32080078,-0.928772,0.36029053,0.625,2.8125,2.8125
1695730050515,-0.36767578,-0.8826294,0.33441162,1.765625,-3.140625,0.9375
1695730050559,-0.29833984,-0.9043579,0.31097412,-1.0,0.6875,0.796875
1695730050605,-0.30639648,-0.97003174,0.3793335,4.71875,-0.359375,-2.234375
1695730050635,-0.35913086,-0.94659424,0.33465576,1.78125,-2.828125,0.203125
1695730050679,-0.3486328,-0.92559814,0.3139038,1.796875,0.609375,0.890625
1695730050709,-0.27929688,-0.95269775,0.35980225,4.53125,0.8125,-0.28125
1695730050754,-0.27978516,-0.9368286,0.32440186,-2.59375,-3.984375,3.328125
1695730050799,-0.30664062,-0.9492798,0.3336792,-0.046875,-0.96875,3.078125
1695730050829,-0.31762695,-0.9631958,0.36224365,0.140625,-5.828125,2.796875
1695730050875,-0.31420898,-0.8945923,0.28704834,-3.4375,-1.859375,4.109375
1695730050919,-0.29736328,-0.96099854,0.3673706,1.28125,-4.578125,4.3125
1695730050949,-0.3095703,-0.9854126,0.35809326,-6.84375,-6.015625,3.828125
1695730050996,-0.3017578,-0.9133911,0.33026123,-4.078125,-5.015625,3.921875
1695730051026,-0.28881836,-0.96051025,0.39544678,-3.40625,-6.140625,1.609375
1695730051069,-0.33203125,-0.94903564,0.36102295,5.296875,-11.265625,-2.078125
1695730051114,-0.28808594,-0.958313,0.32562256,12.8125,3.4375,3.296875
1695730051143,-0.27246094,-0.897522,0.33294678,6.046875,-6.796875,9.4375
1695730051187,-0.3395996,-1.0164185,0.30511475,-3.265625,-4.515625,5.53125
1695730051233,-0.3256836,-0.9780884,0.26116943,0.953125,-3.171875,3.3125
1695730051263,-0.26733398,-0.87335205,0.28533936,-0.5,-9.6875,9.921875
1695730051308,-0.16894531,-0.9224243,0.25164795,2.078125,-4.15625,10.140625
1695730051339,-0.20727539,-0.97735596,0.35150146,-23.703125,9.015625,9.625
1695730051386,-0.38012695,-0.91119385,0.36346436,-10.078125,-8.375,8.0625
1695730051429,-0.29711914,-0.9661255,0.32757568,-10.0,-0.078125,-3.015625
1695730051459,-0.2290039,-0.9351196,0.39520264,-0.375,1.8125,-1.59375
1695730051505,-0.27294922,-0.92071533,0.33929443,-4.0625,4.53125,0.140625
1695730051549,-0.28100586,-0.93463135,0.35101318,1.25,7.546875,-5.28125
1695730051579,-0.28100586,-0.972229,0.38494873,4.34375,3.90625,-5.390625
1695730051624,-0.23168945,-0.923645,0.33416748,3.40625,10.890625,-3.90625
1695730051655,-0.23095703,-0.9365845,0.33465576,3.515625,6.515625,-4.765625
1695730051699,-0.30151367,-0.9505005,0.34710693,4.171875,6.921875,-5.25
1695730051743,-0.28295898,-0.9585571,0.36102295,5.53125,6.984375,-6.671875
1695730051772,-0.28808594,-0.93096924,0.31536865,3.21875,6.703125,-7.328125
1695730051818,-0.25610352,-0.94976807,0.32196045,7.6875,9.140625,-7.859375
1695730051867,-0.26464844,-0.9302368,0.31292725,7.0625,6.21875,-3.890625
1695730051893,-0.29760742,-0.9607544,0.30267334,3.609375,7.421875,-4.28125
1695730051939,-0.2866211,-0.96588135,0.3427124,6.03125,6.25,-5.546875
1695730051968,-0.32080078,-0.91241455,0.27435303,1.828125,4.640625,-5.078125
1695730052015,-0.33911133,-0.95977783,0.29925537,6.703125,8.078125,-6.640625
1695730052059,-0.27856445,-0.98272705,0.31219482,3.71875,6.703125,-6.203125
1695730052089,-0.3095703,-0.91485596,0.2453003,5.9375,8.375,-4.3125
1695730052135,-0.31103516,-0.94317627,0.27459717,9.015625,8.84375,-3.859375
1695730052179,-0.32470703,-0.94488525,0.2929077,7.140625,6.796875,-2.828125
1695730052209,-0.3720703,-0.9336548,0.24432373,1.546875,7.59375,-7.65625
1695730052254,-0.3347168,-0.9434204,0.26116943,8.265625,8.703125,-7.359375
1695730052299,-0.38916016,-0.9421997,0.24676514,4.296875,9.046875,-3.21875
1695730052328,-0.3864746,-0.93829346,0.25213623,2.453125,11.953125,-9.359375
1695730052374,-0.3630371,-0.93463135,0.2489624,6.15625,8.046875,-4.265625
1695730052404,-0.37890625,-0.94073486,0.21966553,3.140625,12.671875,-4.796875
1695730052449,-0.36523438,-0.9727173,0.24066162,8.578125,8.875,-4.421875
1695730052495,-0.37231445,-0.9536743,0.2255249,6.578125,7.140625,-0.71875
1695730052525,-0.38208008,-0.913147,0.22747803,4.453125,8.078125,-3.3125
1695730052570,-0.37719727,-0.94488525,0.19476318,3.484375,3.625,0.25
1695730052615,-0.36816406,-0.9595337,0.22088623,3.140625,4.984375,-0.5625
1695730052644,-0.37573242,-0.9751587,0.22650146,5.921875,1.4375,2.1875
1695730052688,-0.39648438,-0.93414307,0.19085693,-4.296875,1.203125,2.1875
1695730052717,-0.38354492,-0.9439087,0.22747803,4.59375,2.234375,-2.375
1695730052764,-0.40625,-0.95880127,0.230896,-4.9375,0.015625,3.875
1695730052808,-0.4038086,-0.93707275,0.20941162,-3.078125,3.21875,-1.484375
1695730052838,-0.37451172,-0.9468384,0.23822021,-5.03125,-0.546875,-1.140625
1695730052883,-0.37646484,-0.9182739,0.20452881,-8.890625,2.890625,1.796875
1695730052962,-0.3684082,-0.9561157,0.2518921,-3.5,-1.359375,-0.234375
1695730052967,-0.36669922,-0.9612427,0.23529053,-9.0625,-3.984375,4.0625
1695730053006,-0.38012695,-0.9077759,0.23260498,-7.78125,-0.640625,1.046875
1695730053080,-0.35791016,-0.942688,0.27044678,-7.140625,-5.09375,2.859375
1695730053082,-0.38720703,-0.9578247,0.26800537,-11.1875,-3.328125,4.828125
1695730053123,-0.36523438,-0.9714966,0.2897339,-7.65625,-4.25,1.59375
1695730053153,-0.33618164,-0.88238525,0.2711792,-10.34375,-6.0625,6.46875
1695730053199,-0.32666016,-0.9143677,0.2802124,-11.640625,-5.921875,7.765625
1695730053244,-0.30615234,-1.0247192,0.34783936,-8.78125,-9.515625,9.359375
1695730053274,-0.3125,-0.96343994,0.35247803,-13.78125,-8.3125,10.84375
1695730053319,-0.38183594,-0.8743286,0.30438232,-11.703125,-10.28125,8.015625
1695730053365,-0.33203125,-0.86309814,0.3180542,-11.125,-10.296875,9.71875
1695730053393,-0.2578125,-0.9627075,0.3847046,-8.859375,-7.265625,6.359375
1695730053439,-0.3022461,-0.9612427,0.38861084,-10.40625,-12.09375,6.78125
1695730053469,-0.2915039,-0.85821533,0.35394287,-9.765625,-12.171875,10.234375
1695730053513,-0.2775879,-0.94781494,0.4015503,-10.578125,-12.625,5.1875
