# Sensor type: Respeck
# Activity type: Standing
# Activity subtype: Singing
# Subject id: s1862623
# Notes: 
timestamp,accel_x,accel_y,accel_z,gyro_x,gyro_y,gyro_z
1695730168308,-0.37231445,-0.94317627,0.3505249,2.828125,3.125,0.125
1695730168352,-0.33740234,-0.9065552,0.32659912,0.359375,2.5,0.515625
1695730168384,-0.3413086,-0.91607666,0.33221436,3.484375,2.046875,0.078125
1695730168427,-0.34594727,-0.94610596,0.33465576,2.84375,1.546875,0.78125
1695730168472,-0.34887695,-0.9221802,0.33099365,4.25,-0.140625,1.203125
1695730168502,-0.3605957,-0.92193604,0.30511475,0.578125,2.015625,0.6875
1695730168548,-0.34228516,-0.9380493,0.3217163,4.71875,1.546875,0.71875
1695730168577,-0.33984375,-0.93951416,0.3168335,2.921875,2.328125,1.84375
1695730168622,-0.34204102,-0.9456177,0.32000732,7.71875,2.65625,1.421875
1695730168668,-0.34375,-0.9338989,0.2958374,-1.59375,4.84375,0.734375
1695730168698,-0.3581543,-0.93634033,0.3048706,5.140625,3.0625,1.953125
1695730168743,-0.32861328,-0.9529419,0.27972412,3.46875,1.453125,2.1875
1695730168788,-0.3190918,-0.9446411,0.2921753,0.875,3.75,2.21875
1695730168818,-0.30395508,-0.9324341,0.2958374,0.890625,2.46875,1.265625
1695730168865,-0.31420898,-0.9541626,0.27508545,2.84375,0.0625,4.1875
1695730168893,-0.32348633,-0.9480591,0.2880249,0.015625,2.09375,4.0
1695730168938,-0.29516602,-0.9414673,0.27435303,1.671875,-0.953125,2.84375
1695730168982,-0.28149414,-0.95196533,0.27288818,0.859375,-0.28125,2.859375
1695730169013,-0.30078125,-0.9612427,0.2843628,1.890625,1.578125,4.25
1695730169058,-0.30078125,-0.9578247,0.26971436,0.53125,-0.234375,3.390625
1695730169135,-0.27416992,-0.95684814,0.28704834,3.9375,-1.09375,2.953125
1695730169138,-0.28320312,-0.96417236,0.27703857,1.15625,-0.109375,4.21875
1695730169178,-0.29003906,-0.9505005,0.25506592,0.578125,-0.953125,2.65625
1695730169208,-0.28198242,-0.95928955,0.27557373,1.328125,-0.78125,2.796875
1695730169255,-0.2861328,-0.9612427,0.26434326,-1.703125,-0.34375,2.015625
1695730169298,-0.27685547,-0.9495239,0.26605225,3.40625,-2.453125,1.125
1695730169330,-0.28222656,-0.9522095,0.25579834,-0.21875,-2.28125,1.078125
1695730169374,-0.30078125,-0.9656372,0.27288818,3.96875,-2.375,1.015625
1695730169419,-0.29492188,-0.9656372,0.2526245,4.375,-2.34375,0.4375
1695730169448,-0.3034668,-0.9614868,0.22357178,7.5625,-5.640625,1.5
1695730169494,-0.27001953,-0.975647,0.23919678,4.9375,-1.40625,1.09375
1695730169524,-0.22802734,-0.95806885,0.22821045,7.40625,-1.09375,2.390625
1695730169568,-0.27490234,-0.96954346,0.22943115,3.734375,0.390625,2.640625
1695730169614,-0.2824707,-0.9649048,0.22650146,4.890625,-2.9375,3.046875
1695730169644,-0.27392578,-0.986145,0.19940186,-0.78125,-0.21875,1.34375
1695730169689,-0.25878906,-0.9595337,0.20257568,-1.265625,1.0625,-0.5625
1695730169734,-0.27197266,-0.97247314,0.21551514,-1.140625,2.796875,-0.0625
1695730169764,-0.28320312,-0.98931885,0.21551514,-2.859375,5.09375,0.15625
1695730169809,-0.27856445,-0.9812622,0.22064209,-0.921875,2.8125,-0.96875
1695730169840,-0.2626953,-0.9578247,0.23431396,-1.734375,2.65625,-1.375
1695730169885,-0.27124023,-0.9627075,0.20941162,-3.5,3.4375,-0.5
1695730169931,-0.27124023,-0.97320557,0.22015381,-1.78125,3.140625,-0.96875
1695730169958,-0.26245117,-0.9685669,0.26727295,1.421875,3.421875,-0.890625
1695730170003,-0.27392578,-0.97198486,0.2218628,-5.125,3.03125,-1.078125
1695730170049,-0.28076172,-0.96832275,0.22235107,-3.0,5.328125,-4.125
1695730170080,-0.28271484,-0.9673462,0.24871826,-0.421875,4.09375,-0.875
1695730170125,-0.27270508,-0.97247314,0.2255249,-2.4375,3.140625,-2.484375
1695730170153,-0.25927734,-0.94781494,0.21795654,-1.140625,3.109375,-2.5
1695730170199,-0.28320312,-0.9607544,0.24261475,0.9375,3.5,-1.375
1695730170245,-0.3083496,-0.989563,0.24847412,-1.578125,2.546875,-0.765625
1695730170275,-0.2890625,-0.9639282,0.22576904,-2.875,3.671875,-3.90625
1695730170319,-0.28393555,-0.9483032,0.24505615,-0.3125,4.03125,-2.3125
1695730170378,-0.29589844,-0.97198486,0.23187256,-1.140625,1.859375,-0.796875
1695730170392,-0.28686523,-0.96221924,0.2423706,-1.265625,2.40625,-1.65625
1695730170438,-0.27270508,-0.9585571,0.25238037,-0.890625,2.828125,-1.734375
1695730170469,-0.3190918,-0.97369385,0.24188232,-2.609375,1.921875,0.671875
1695730170513,-0.31933594,-0.9631958,0.24090576,-0.21875,2.28125,-1.5625
1695730170560,-0.3083496,-0.9475708,0.24505615,-0.265625,4.296875,-1.9375
1695730170589,-0.30859375,-0.95269775,0.2374878,-1.359375,2.984375,0.0625
1695730170634,-0.3137207,-0.9570923,0.23480225,0.609375,0.15625,0.0625
1695730170679,-0.30615234,-0.95391846,0.24139404,0.25,3.21875,-0.703125
1695730170711,-0.30126953,-0.9553833,0.2501831,0.0,2.71875,0.59375
1695730170754,-0.31298828,-0.9651489,0.24993896,3.1875,-1.5,2.109375
1695730170787,-0.31835938,-0.9495239,0.2218628,0.484375,-3.0625,-0.515625
1695730170830,-0.28979492,-0.9385376,0.246521,2.890625,-2.703125,0.6875
1695730170874,-0.3227539,-0.9795532,0.23406982,-2.203125,1.1875,1.765625
1695730170906,-0.31396484,-0.9771118,0.24261475,-1.65625,4.703125,-2.640625
1695730170950,-0.30566406,-0.94781494,0.2267456,-0.296875,-0.5625,-0.15625
1695730170995,-0.2783203,-0.9614868,0.24578857,0.21875,-1.1875,2.9375
1695730171024,-0.30004883,-0.9570923,0.23651123,-2.09375,-0.71875,0.03125
1695730171069,-0.30688477,-0.98516846,0.24822998,-1.390625,1.3125,0.1875
1695730171099,-0.28515625,-0.96954346,0.27093506,-2.859375,2.5,1.40625
1695730171149,-0.28833008,-0.9356079,0.23236084,0.03125,-2.390625,1.28125
1695730171190,-0.27026367,-0.9570923,0.2694702,0.15625,-3.25,2.734375
1695730171219,-0.31396484,-0.9873657,0.2868042,-0.9375,-1.015625,1.015625
1695730171265,-0.31030273,-0.95513916,0.24041748,-2.8125,-0.75,-0.578125
1695730171309,-0.26049805,-0.9624634,0.24066162,-0.546875,-3.125,0.53125
1695730171339,-0.26782227,-0.9768677,0.26971436,-0.53125,-0.875,1.046875
1695730171387,-0.28808594,-0.9421997,0.25238037,-0.046875,-0.203125,0.640625
1695730171414,-0.2998047,-0.9546509,0.2555542,-0.1875,-1.28125,0.765625
1695730171459,-0.2841797,-0.973938,0.27093506,-0.9375,-1.015625,0.015625
1695730171506,-0.27490234,-0.9417114,0.24017334,0.109375,-1.046875,0.984375
1695730171534,-0.29370117,-0.9751587,0.26385498,-0.953125,0.984375,-0.140625
1695730171579,-0.28515625,-0.9678345,0.27093506,2.671875,-2.921875,0.390625
1695730171624,-0.2763672,-0.9265747,0.22161865,-1.0625,-3.828125,1.28125
1695730171655,-0.29956055,-0.9734497,0.2662964,-1.5625,-2.890625,0.125
1695730171700,-0.30249023,-0.9973755,0.26385498,-1.765625,2.140625,-0.5625
1695730171744,-0.28320312,-0.9483032,0.22479248,-0.34375,2.78125,-0.03125
1695730171774,-0.29833984,-0.9614868,0.2687378,-1.203125,1.234375,-0.59375
1695730171819,-0.2824707,-0.95196533,0.24285889,1.65625,0.609375,1.265625
1695730171849,-0.27661133,-0.96051025,0.24188232,-0.640625,-1.515625,1.75
1695730171894,-0.27905273,-0.98638916,0.24481201,-0.140625,-1.4375,0.125
1695730171939,-0.29125977,-0.94317627,0.25238037,-0.140625,3.0625,0.71875
1695730171970,-0.30444336,-0.9590454,0.22650146,-1.0,-0.484375,1.265625
1695730172015,-0.28515625,-0.9758911,0.2616577,1.0625,0.515625,-0.40625
1695730172061,-0.27416992,-0.95513916,0.22576904,-0.9375,0.796875,0.1875
1695730172090,-0.29052734,-0.9631958,0.24505615,-0.171875,1.1875,0.65625
1695730172137,-0.27539062,-0.9585571,0.2411499,-1.34375,0.953125,0.859375
1695730172167,-0.29370117,-0.9573364,0.24725342,-3.25,-1.703125,0.265625
1695730172210,-0.28759766,-0.9751587,0.26287842,-2.078125,0.21875,-0.625
1695730172254,-0.2836914,-0.95269775,0.24505615,0.84375,1.3125,1.3125
1695730172285,-0.28198242,-0.97003174,0.2423706,-7.046875,1.046875,0.8125
1695730172329,-0.3017578,-0.975647,0.277771,-4.9375,0.953125,-1.953125
1695730172374,-0.28076172,-0.9685669,0.26287842,0.171875,4.953125,-2.578125
1695730172407,-0.31689453,-0.96661377,0.25775146,-5.40625,2.96875,-0.640625
1695730172449,-0.25878906,-0.93829346,0.2592163,2.9375,1.46875,0.234375
1695730172480,-0.28076172,-0.9553833,0.2489624,-4.421875,1.0,0.453125
1695730172525,-0.30566406,-0.95977783,0.2633667,-1.359375,1.578125,-0.9375
1695730172570,-0.30517578,-0.9505005,0.28948975,-2.015625,-0.375,1.078125
1695730172599,-0.29589844,-0.95513916,0.25164795,-1.46875,-1.078125,0.671875
1695730172645,-0.27954102,-0.9590454,0.27069092,-1.640625,0.484375,-0.15625
1695730172690,-0.28930664,-0.9480591,0.27752686,-0.65625,-1.21875,0.203125
1695730172719,-0.30444336,-0.95880127,0.2658081,-0.671875,1.484375,0.578125
1695730172765,-0.29052734,-0.9468384,0.25091553,-0.4375,2.09375,1.6875
1695730172796,-0.30615234,-0.9561157,0.2880249,-1.1875,2.3125,-0.40625
1695730172838,-0.3347168,-0.95880127,0.27703857,0.359375,-0.75,0.75
1695730172886,-0.30151367,-0.9385376,0.25213623,-0.765625,2.28125,0.34375
1695730172915,-0.28515625,-0.956604,0.2645874,-3.171875,2.46875,-1.046875
1695730172959,-0.31640625,-0.9524536,0.30413818,0.515625,3.859375,-0.328125
1695730173019,-0.30541992,-0.9458618,0.25994873,-2.796875,1.53125,-0.859375
1695730173043,-0.29492188,-0.95098877,0.28460693,-0.203125,3.796875,-1.484375
1695730173079,-0.29345703,-0.9534302,0.30096436,-1.0625,2.0625,0.015625
1695730173109,-0.30126953,-0.9480591,0.27020264,-3.21875,3.015625,-1.296875
1695730173154,-0.2956543,-0.9619751,0.2909546,1.4375,3.953125,-0.46875
1695730173199,-0.28222656,-0.9529419,0.29779053,-2.875,1.640625,0.5625
1695730173230,-0.29589844,-0.9534302,0.27703857,-2.71875,3.390625,-0.59375
1695730173277,-0.30566406,-0.944397,0.31463623,0.140625,1.3125,-0.34375
1695730173319,-0.2824707,-0.96710205,0.30389404,-4.421875,1.40625,-0.484375
1695730173349,-0.296875,-0.9585571,0.3139038,-0.390625,1.453125,0.09375
1695730173395,-0.2944336,-0.94195557,0.2892456,-3.84375,-0.171875,1.109375
1695730173425,-0.27954102,-0.94854736,0.29925537,-1.671875,-1.40625,-1.65625
1695730173471,-0.30541992,-0.9595337,0.31488037,-0.984375,0.875,0.828125
1695730173519,-0.30737305,-0.9368286,0.3012085,-3.203125,1.890625,0.46875
1695730173545,-0.3046875,-0.95977783,0.3258667,-1.53125,-0.25,-1.078125
1695730173590,-0.28930664,-0.9434204,0.30926514,-3.25,0.90625,0.125
1695730173634,-0.29516602,-0.95147705,0.31610107,-3.046875,1.328125,-0.578125
1695730173664,-0.30322266,-0.9483032,0.3287964,-1.578125,-0.171875,-0.109375
1695730173710,-0.30200195,-0.9312134,0.3143921,-2.40625,0.65625,0.265625
1695730173739,-0.2927246,-0.96295166,0.32537842,-2.484375,1.3125,-1.171875
1695730173785,-0.2861328,-0.93463135,0.33270264,-0.890625,0.5,-0.296875
1695730173829,-0.31591797,-0.92633057,0.3204956,-1.015625,0.78125,-0.828125
1695730173859,-0.29711914,-0.97320557,0.3451538,-1.515625,2.1875,-0.75
1695730173905,-0.28637695,-0.9277954,0.3270874,-3.703125,1.34375,0.5
1695730173950,-0.3149414,-0.9360962,0.3319702,-0.71875,0.703125,-1.0
1695730173979,-0.29248047,-0.9541626,0.340271,-1.21875,0.375,-0.25
1695730174026,-0.29223633,-0.9265747,0.33172607,-2.484375,1.28125,-0.03125
1695730174054,-0.31396484,-0.9505005,0.33880615,-3.1875,0.890625,-0.796875
1695730174099,-0.30078125,-0.93292236,0.3475952,-1.375,-1.328125,0.453125
1695730174146,-0.2915039,-0.93829346,0.34466553,-0.4375,-0.515625,0.21875
1695730174177,-0.32226562,-0.95098877,0.34368896,-1.21875,-0.828125,0.25
1695730174221,-0.31884766,-0.9182739,0.34613037,2.4375,-2.34375,1.546875
1695730174266,-0.32055664,-0.9434204,0.35150146,4.484375,-1.40625,1.53125
1695730174294,-0.3166504,-0.9751587,0.32196045,6.03125,1.46875,1.15625
1695730174339,-0.29052734,-0.92315674,0.31463623,5.625,5.453125,2.984375
1695730174369,-0.31591797,-0.9319458,0.34735107,6.828125,2.734375,2.9375
1695730174414,-0.31762695,-1.0029907,0.30828857,8.796875,6.578125,2.9375
1695730174459,-0.28588867,-0.94244385,0.2904663,5.390625,1.234375,3.46875
1695730174489,-0.28637695,-0.9199829,0.29437256,-0.640625,-0.4375,3.8125
1695730174536,-0.25927734,-0.98565674,0.30316162,5.1875,-1.234375,2.625
1695730174579,-0.29541016,-0.9751587,0.2741089,1.5625,-0.984375,3.890625
1695730174609,-0.2421875,-0.9168091,0.2345581,1.734375,-5.53125,3.65625
1695730174654,-0.22973633,-0.97662354,0.27142334,1.171875,-1.421875,3.53125
1695730174745,-0.23803711,-0.9385376,0.24725342,-3.5625,-6.5625,3.328125
1695730174758,-0.2685547,-0.960022,0.27630615,-2.546875,-8.953125,3.109375
1695730174775,-0.26342773,-1.006897,0.32928467,-1.546875,-1.6875,3.515625
1695730174804,-0.27075195,-0.97540283,0.26019287,-6.453125,6.4375,-0.296875
1695730174849,-0.265625,-0.93414307,0.28070068,-0.375,1.171875,-1.09375
1695730174894,-0.21484375,-0.9483032,0.29974365,2.21875,-6.796875,3.96875
1695730174924,-0.2331543,-0.95977783,0.29437256,-2.015625,-9.203125,3.71875
1695730174970,-0.26171875,-0.9949341,0.28948975,-2.125,-3.53125,1.46875
1695730174998,-0.25634766,-0.96099854,0.27337646,0.34375,-2.765625,1.6875
1695730175043,-0.24414062,-0.927063,0.2682495,-1.78125,-6.921875,2.296875
1695730175091,-0.26049805,-0.9841919,0.2880249,-6.5,-7.296875,2.078125
1695730175118,-0.23876953,-0.9783325,0.324646,-2.40625,-0.609375,-0.15625
1695730175164,-0.24487305,-0.9817505,0.2831421,-4.140625,3.09375,-1.40625
1695730175210,-0.26220703,-0.942688,0.27703857,-3.546875,4.765625,-2.125
1695730175239,-0.23754883,-0.92803955,0.28631592,0.78125,1.171875,0.9375
1695730175285,-0.25390625,-0.98931885,0.32000732,-1.640625,0.203125,1.421875
1695730175314,-0.26513672,-0.97857666,0.28948975,-1.859375,-0.53125,-0.53125
1695730175358,-0.22973633,-0.94317627,0.28533936,-2.40625,-0.484375,0.125
1695730175405,-0.24291992,-0.9500122,0.32122803,-3.109375,-2.296875,0.375
1695730175437,-0.27514648,-0.987854,0.31878662,-3.234375,1.015625,0.46875
1695730175478,-0.23779297,-0.95196533,0.2958374,-3.59375,1.765625,-0.65625
1695730175524,-0.26220703,-0.9463501,0.34295654,-4.015625,0.546875,-1.640625
1695730175558,-0.28295898,-0.9487915,0.30462646,-3.546875,1.109375,-1.59375
1695730175599,-0.26879883,-0.9541626,0.33148193,-1.390625,2.484375,-1.0
1695730175644,-0.2709961,-0.96710205,0.34124756,-5.40625,1.8125,-1.359375
1695730175675,-0.28271484,-0.93878174,0.32269287,-1.046875,2.921875,-3.5
1695730175718,-0.25219727,-0.94976807,0.34075928,-2.765625,3.140625,-2.5625
1695730175750,-0.2697754,-0.9524536,0.34173584,-3.234375,2.015625,-1.96875
1695730175795,-0.2783203,-0.94854736,0.31829834,-3.875,2.421875,-2.71875
1695730175838,-0.27929688,-0.9451294,0.36810303,0.09375,2.453125,-2.546875
1695730175869,-0.29760742,-0.9507446,0.3397827,-6.125,2.3125,-1.609375
1695730175915,-0.2849121,-0.9273071,0.355896,-2.1875,3.21875,-1.90625
1695730175960,-0.28198242,-0.9480591,0.3703003,-2.921875,1.0625,-2.421875
1695730175989,-0.28198242,-0.9265747,0.35321045,-5.078125,3.1875,-2.859375
1695730176035,-0.29907227,-0.9331665,0.37347412,-1.140625,3.0625,-1.328125
1695730176064,-0.29516602,-0.95147705,0.37664795,0.09375,2.890625,-2.296875
1695730176110,-0.27514648,-0.91412354,0.36395264,-3.3125,3.53125,-1.796875
1695730176154,-0.296875,-0.92388916,0.37615967,-0.40625,2.40625,-1.6875
1695730176185,-0.2993164,-0.95928955,0.38885498,0.375,1.21875,-1.5
1695730176229,-0.28857422,-0.9192505,0.36297607,-1.28125,1.265625,-1.578125
1695730176276,-0.28686523,-0.9241333,0.37713623,3.15625,1.421875,-1.46875
1695730176304,-0.30517578,-0.942688,0.37469482,4.359375,-0.171875,-0.28125
1695730176350,-0.29907227,-0.9246216,0.35272217,2.5625,4.203125,-1.84375
1695730176379,-0.29882812,-0.9492798,0.36566162,9.03125,7.390625,-2.734375
1695730176425,-0.34204102,-0.95391846,0.3690796,10.65625,9.765625,-0.3125
1695730176469,-0.3022461,-0.91973877,0.32855225,10.8125,10.953125,-2.3125
1695730176499,-0.31884766,-0.93634033,0.34295654,5.703125,7.578125,-1.1875
1695730176544,-0.29589844,-0.93218994,0.2723999,2.203125,5.203125,0.109375
1695730176620,-0.28588867,-0.954895,0.30877686,9.421875,2.34375,0.265625
1695730176622,-0.27319336,-0.9468384,0.30145264,2.203125,1.546875,0.8125
1695730176665,-0.29003906,-0.93414307,0.2670288,5.5,-1.09375,3.171875
1695730176694,-0.29296875,-0.9434204,0.26141357,-2.125,-0.109375,-1.109375
1695730176738,-0.2919922,-0.9522095,0.28289795,-0.21875,-5.8125,-0.21875
1695730176784,-0.27783203,-0.9522095,0.33587646,0.0,2.59375,0.75
1695730176814,-0.32885742,-0.9841919,0.28460693,-2.34375,4.46875,0.265625
1695730176859,-0.32714844,-0.95635986,0.28485107,3.625,3.859375,-0.046875
1695730176905,-0.2734375,-0.9194946,0.2819214,2.234375,-0.59375,0.28125
1695730176934,-0.2763672,-0.9612427,0.2904663,-0.921875,-2.703125,2.0
1695730176979,-0.2993164,-0.9776001,0.29852295,-0.171875,-2.34375,2.171875
1695730177009,-0.29589844,-0.9624634,0.26898193,-2.796875,3.09375,-3.1875
1695730177053,-0.28930664,-0.9463501,0.26434326,-0.546875,2.625,-0.59375
1695730177100,-0.29101562,-0.93951416,0.30194092,1.5,0.84375,1.921875
1695730177130,-0.29858398,-0.9546509,0.2789917,-1.65625,-1.453125,-0.390625
1695730177189,-0.2919922,-0.9624634,0.28778076,-1.015625,-1.171875,0.453125
1695730177219,-0.28271484,-0.95928955,0.29852295,-0.625,0.859375,-0.5
1695730177249,-0.30371094,-0.93634033,0.26190186,-1.140625,0.515625,0.46875
1695730177294,-0.29882812,-0.96539307,0.2987671,1.578125,0.75,1.0625
1695730177323,-0.28955078,-0.94659424,0.28411865,-4.359375,-3.515625,0.203125
1695730177368,-0.30200195,-0.94488525,0.2921753,-3.8125,-2.40625,1.28125
1695730177413,-0.2841797,-0.98809814,0.3036499,-0.5,1.484375,0.125
1695730177444,-0.30859375,-0.9456177,0.31463623,0.390625,-1.03125,2.390625
1695730177491,-0.29711914,-0.9487915,0.30389404,-2.390625,1.296875,1.6875
1695730177533,-0.27978516,-0.9570923,0.27947998,-2.859375,0.359375,-0.703125
1695730177563,-0.27807617,-0.9421997,0.29681396,-0.75,2.203125,1.421875
1695730177609,-0.29833984,-0.95684814,0.31121826,-0.28125,0.75,1.03125
1695730177639,-0.2932129,-0.9507446,0.2970581,-1.3125,0.421875,2.015625
1695730177685,-0.28759766,-0.9385376,0.29925537,-1.578125,0.71875,0.671875
1695730177729,-0.28051758,-0.9678345,0.30926514,-1.234375,-0.015625,-0.359375
1695730177759,-0.27612305,-0.9578247,0.30682373,0.078125,2.078125,1.921875
1695730177804,-0.27807617,-0.9417114,0.2868042,-5.25,1.109375,-0.421875
1695730177849,-0.29125977,-0.96417236,0.3336792,-1.203125,1.71875,-0.234375
1695730177879,-0.2861328,-0.95147705,0.3114624,-5.5,2.71875,-0.5
1695730177925,-0.27954102,-0.9487915,0.30511475,-4.4375,2.078125,-1.953125
1695730177956,-0.2788086,-0.9470825,0.33538818,-1.78125,1.234375,-0.0625
1695730177999,-0.29003906,-0.9495239,0.309021,-2.765625,2.34375,-0.234375
1695730178045,-0.27905273,-0.94903564,0.32928467,-2.78125,2.703125,-0.890625
1695730178073,-0.26782227,-0.9390259,0.34588623,0.84375,1.34375,0.75
1695730178119,-0.29956055,-0.9458618,0.32269287,-2.53125,1.59375,-0.59375
1695730178165,-0.2980957,-0.9463501,0.3283081,0.921875,2.0625,-0.21875
1695730178196,-0.27734375,-0.9390259,0.33172607,0.296875,1.078125,0.328125
1695730178239,-0.27441406,-0.95025635,0.34173584,-0.0625,2.125,-0.03125
1695730178269,-0.27001953,-0.9351196,0.32391357,0.28125,-1.890625,0.40625
1695730178314,-0.29248047,-0.9529419,0.32611084,-3.8125,0.21875,-1.390625
1695730178359,-0.28515625,-0.9561157,0.34320068,-1.0,0.890625,-0.9375
1695730178391,-0.27905273,-0.925354,0.32440186,-4.921875,0.078125,1.03125
1695730178434,-0.29589844,-0.95196533,0.36346436,-0.015625,0.671875,-1.703125
1695730178479,-0.2927246,-0.9446411,0.36151123,-0.375,0.328125,0.140625
1695730178509,-0.29541016,-0.9038696,0.32122803,-5.90625,0.046875,-0.046875
1695730178554,-0.2890625,-0.9714966,0.37347412,-1.90625,0.359375,-2.375
1695730178584,-0.28710938,-0.9500122,0.36761475,-0.921875,0.734375,-1.046875
1695730178629,-0.2980957,-0.8960571,0.35491943,-4.125,1.359375,0.203125
1695730178674,-0.29418945,-0.94610596,0.36663818,0.640625,-0.4375,-0.484375
1695730178705,-0.29711914,-0.9492798,0.3817749,-0.84375,0.078125,-0.140625
1695730178749,-0.30737305,-0.9170532,0.34832764,-3.15625,1.328125,-0.15625
1695730178795,-0.2890625,-0.94732666,0.37786865,-0.640625,0.21875,-1.234375
1695730178825,-0.2993164,-0.92926025,0.3756714,-0.75,1.203125,0.5625
1695730178869,-0.31054688,-0.9273071,0.35369873,-4.984375,2.734375,-1.0
1695730178899,-0.2939453,-0.9524536,0.3866577,1.96875,-0.25,-0.84375
1695730178945,-0.27905273,-0.91363525,0.3661499,-2.984375,1.546875,-0.59375
1695730178990,-0.30908203,-0.928772,0.37982178,-1.234375,1.0,0.078125
1695730179019,-0.31567383,-0.9529419,0.37347412,-1.359375,0.625,-0.75
1695730179064,-0.3005371,-0.9221802,0.37908936,-0.984375,1.625,-0.46875
1695730179109,-0.30908203,-0.91192627,0.371521,-2.796875,1.53125,-0.234375
1695730179141,-0.3100586,-0.9351196,0.38446045,-0.90625,0.53125,-1.28125
1695730179185,-0.3046875,-0.91900635,0.38641357,-2.546875,1.65625,-0.640625
1695730179229,-0.30737305,-0.9194946,0.38861084,-0.734375,-0.734375,0.0
1695730179259,-0.30639648,-0.9307251,0.3805542,1.0625,-0.8125,0.109375
1695730179305,-0.31347656,-0.92437744,0.37786865,-1.1875,1.140625,-0.90625
1695730179335,-0.30737305,-0.942688,0.3998413,0.0,-0.3125,-0.890625
1695730179380,-0.30932617,-0.90826416,0.38079834,1.875,-2.578125,0.46875
1695730179427,-0.35595703,-0.92755127,0.37420654,2.046875,-0.984375,0.9375
1695730179454,-0.33325195,-0.9397583,0.38909912,1.234375,7.296875,-1.34375
1695730179499,-0.30322266,-0.93414307,0.355896,5.203125,6.75,-1.140625
1695730179544,-0.30444336,-0.9380493,0.38079834,4.109375,4.09375,0.40625
1695730179578,-0.32006836,-0.90997314,0.34881592,7.515625,2.40625,1.703125
1695730179618,-0.3125,-0.954895,0.3493042,1.84375,8.4375,1.109375
1695730179649,-0.30297852,-0.93829346,0.37005615,6.703125,1.53125,0.546875
1695730179695,-0.28515625,-0.91851807,0.3475952,3.21875,1.578125,0.96875
1695730179740,-0.29516602,-0.9351196,0.30706787,-0.96875,-1.0625,2.171875
1695730179769,-0.30273438,-0.95098877,0.34100342,7.203125,1.875,2.953125
1695730179814,-0.2861328,-0.93927,0.3085327,5.375,1.953125,2.265625
1695730179859,-0.28344727,-0.94415283,0.29559326,2.515625,0.484375,2.40625
1695730179890,-0.28222656,-0.94976807,0.2850952,2.0625,-0.1875,2.3125
1695730179934,-0.25927734,-0.92437744,0.25994873,-1.859375,1.328125,0.078125
1695730179964,-0.29614258,-0.9619751,0.32806396,-2.140625,5.359375,-0.25
1695730180010,-0.3239746,-0.97540283,0.3739624,1.21875,7.515625,0.75
1695730180054,-0.31298828,-0.9282837,0.29779053,3.953125,-0.40625,2.765625
1695730180085,-0.28686523,-0.9277954,0.29486084,-0.578125,-0.09375,0.5
1695730180129,-0.2697754,-0.9627075,0.30023193,-1.875,5.546875,-2.71875
1695730180205,-0.28320312,-0.97857666,0.3222046,1.890625,5.6875,1.71875
1695730180208,-0.2944336,-0.93878174,0.31976318,1.859375,-1.6875,1.828125
1695730180251,-0.26538086,-0.9365845,0.27020264,1.796875,-4.90625,1.765625
1695730180279,-0.25708008,-0.9673462,0.28875732,2.984375,-5.46875,3.59375
1695730180324,-0.29614258,-0.9795532,0.27069092,-2.15625,-4.5,3.03125
1695730180369,-0.28271484,-0.94610596,0.31243896,1.390625,0.96875,1.109375
1695730180399,-0.2775879,-0.95880127,0.27459717,-1.59375,-2.609375,0.703125
1695730180446,-0.26293945,-0.96417236,0.27850342,-1.515625,-4.203125,3.671875
1695730180491,-0.24536133,-0.9746704,0.31292725,-1.109375,3.171875,-1.453125
1695730180519,-0.2758789,-0.9661255,0.2748413,-4.453125,2.28125,-1.0625
1695730180564,-0.27807617,-0.9404907,0.2855835,3.9375,-4.1875,3.390625
1695730180596,-0.2626953,-0.958313,0.30511475,-1.390625,-3.90625,0.890625
1695730180639,-0.27416992,-0.9710083,0.27386475,-2.078125,-2.328125,-0.140625
1695730180685,-0.25854492,-0.9522095,0.2921753,1.125,-3.65625,2.0625
1695730180715,-0.2626953,-0.9627075,0.30584717,-2.578125,-3.421875,0.203125
1695730180759,-0.2685547,-0.944397,0.2772827,-1.109375,-1.8125,-0.25
1695730180805,-0.27416992,-0.96221924,0.2958374,-1.453125,-1.09375,1.59375
1695730180833,-0.265625,-0.956604,0.30267334,-2.265625,-5.203125,0.421875
1695730180879,-0.2763672,-0.96588135,0.30560303,-1.203125,-2.15625,-0.546875
1695730180909,-0.2944336,-0.9585571,0.2819214,-4.109375,0.234375,-1.375
1695730180954,-0.2602539,-0.9483032,0.291687,0.03125,-1.203125,0.75
1695730181001,-0.26464844,-0.9697876,0.31048584,-0.78125,-1.53125,-0.03125
1695730181029,-0.28588867,-0.9636841,0.28900146,-2.296875,-1.3125,-1.25
1695730181074,-0.2619629,-0.9299927,0.28631592,-2.171875,0.296875,0.046875
1695730181119,-0.27807617,-0.9649048,0.3126831,-1.6875,0.6875,-0.734375
1695730181149,-0.28686523,-0.9649048,0.31610107,-2.875,-0.3125,-0.859375
1695730181194,-0.28393555,-0.9221802,0.30706787,-2.578125,0.1875,-0.265625
1695730181225,-0.28125,-0.95977783,0.33099365,-4.21875,0.203125,-0.03125
1695730181269,-0.28930664,-0.96173096,0.3131714,-2.9375,0.421875,-0.375
1695730181314,-0.26049805,-0.93927,0.31903076,-2.828125,-0.984375,0.234375
1695730181345,-0.27270508,-0.97369385,0.35369873,-2.640625,-0.9375,0.65625
1695730181389,-0.29882812,-0.9522095,0.32513428,-4.1875,-0.59375,0.96875
1695730181434,-0.26464844,-0.9348755,0.32757568,-2.671875,-2.40625,0.921875
1695730181464,-0.2590332,-0.9536743,0.37322998,-1.78125,-3.140625,1.34375
1695730181509,-0.30615234,-0.95147705,0.3529663,-5.5625,-2.25,1.0625
1695730181539,-0.3100586,-0.92852783,0.34979248,-8.40625,-1.703125,-1.859375
1695730181583,-0.28076172,-0.91778564,0.3632202,-7.40625,-1.046875,-1.4375
1695730181629,-0.2746582,-0.9585571,0.38739014,-1.84375,3.796875,2.171875
1695730181659,-0.29589844,-0.95635986,0.39398193,-1.484375,6.796875,0.453125
1695730181705,-0.28808594,-0.9180298,0.37298584,0.984375,8.125,1.59375
1695730181749,-0.2824707,-0.9404907,0.37738037,6.265625,5.828125,3.625
1695730181779,-0.2607422,-0.9517212,0.34881592,2.015625,1.765625,3.34375
1695730181826,-0.25195312,-0.95269775,0.369812,7.859375,5.1875,3.796875
1695730181856,-0.26757812,-0.9273071,0.35369873,3.765625,3.78125,5.109375
1695730181899,-0.27270508,-0.9348755,0.3300171,-3.640625,4.890625,2.578125
1695730181944,-0.23168945,-0.9260864,0.33172607,1.828125,2.34375,2.921875
1695730181976,-0.23144531,-0.94732666,0.33099365,0.96875,-0.15625,2.140625
1695730182018,-0.22875977,-0.9368286,0.32684326,-1.546875,-1.609375,1.28125
1695730182064,-0.23022461,-0.9282837,0.34197998,-0.171875,-0.296875,-0.015625
1695730182094,-0.26416016,-0.9714966,0.3961792,2.5,-3.0625,3.546875
1695730182154,-0.27319336,-0.98931885,0.35614014,0.1875,-1.65625,1.921875
1695730182170,-0.23730469,-0.9536743,0.32440186,-1.296875,2.96875,-2.40625
1695730182214,-0.22851562,-0.9429321,0.3390503,0.78125,5.484375,-2.4375
1695730182260,-0.23217773,-0.9553833,0.34490967,-0.484375,4.453125,-0.21875
1695730182289,-0.26513672,-0.97369385,0.37176514,4.046875,1.796875,0.046875
1695730182334,-0.24682617,-0.9421997,0.3139038,-4.03125,3.875,-4.9375
1695730182381,-0.22192383,-0.9265747,0.3085327,0.453125,5.734375,-3.265625
1695730182411,-0.25390625,-0.9873657,0.369812,-1.296875,3.21875,0.78125
1695730182455,-0.2578125,-0.958313,0.35736084,-1.34375,7.109375,-3.53125
1695730182484,-0.25341797,-0.9404907,0.3209839,-1.1875,8.109375,-4.203125
1695730182529,-0.2553711,-0.93048096,0.36590576,1.484375,5.296875,-1.71875
1695730182574,-0.25268555,-0.9258423,0.35076904,-1.40625,3.125,-1.109375
1695730182606,-0.22729492,-0.96173096,0.31463623,0.390625,0.203125,-1.15625
1695730182649,-0.21606445,-1.0090942,0.3204956,1.59375,-0.0625,1.25
1695730182698,-0.2697754,-0.9680786,0.3151245,3.8125,-2.75,1.359375
1695730182723,-0.30322266,-0.95196533,0.31854248,-2.046875,-0.6875,-2.53125
1695730182770,-0.27954102,-0.9397583,0.29681396,-3.59375,-0.25,-3.703125
1695730182815,-0.2631836,-0.942688,0.3480835,-0.453125,0.84375,-2.78125
1695730182844,-0.2746582,-0.9417114,0.3529663,-6.015625,-0.171875,-2.96875
1695730182889,-0.28100586,-0.9612427,0.34661865,-2.984375,-0.09375,-3.203125
1695730182918,-0.2902832,-0.95318604,0.33465576,-2.53125,2.140625,-3.734375
1695730182964,-0.28051758,-0.9229126,0.31976318,-0.28125,1.15625,-2.1875
1695730183009,-0.29492188,-0.9500122,0.35321045,-0.09375,0.4375,-2.359375
1695730183039,-0.2939453,-0.93170166,0.35614014,-1.515625,0.5625,-3.25
1695730183085,-0.29956055,-0.92852783,0.32855225,3.46875,-1.5,-0.125
1695730183130,-0.29077148,-0.9680786,0.33148193,-2.40625,1.53125,-2.59375
1695730183159,-0.2980957,-0.9192505,0.32928467,-1.171875,1.5625,-4.796875
1695730183204,-0.32202148,-0.93829346,0.34124756,3.796875,-0.984375,-0.515625
1695730183235,-0.2919922,-0.95196533,0.35906982,-0.546875,-0.5,-0.21875
1695730183279,-0.29516602,-0.9224243,0.3139038,-4.453125,1.796875,-2.796875
1695730183324,-0.33447266,-0.9500122,0.35443115,0.109375,4.390625,-2.015625
1695730183355,-0.3317871,-0.9558716,0.36932373,-1.75,1.5625,1.890625
1695730183399,-0.31567383,-0.9380493,0.3348999,1.96875,0.21875,3.890625
1695730183476,-0.30688477,-0.954895,0.3619995,0.671875,2.4375,3.734375
1695730183478,-0.28149414,-0.93829346,0.34490967,4.28125,0.0,6.859375
1695730183519,-0.23999023,-0.95513916,0.3378296,5.71875,-5.15625,8.6875
1695730183549,-0.2705078,-0.95928955,0.34881592,-0.078125,-5.515625,8.125
1695730183596,-0.26342773,-0.94000244,0.28460693,-3.984375,-8.828125,8.609375
1695730183639,-0.25854492,-0.96588135,0.33880615,-0.5,-9.4375,8.5625
1695730183670,-0.24853516,-0.9651489,0.34075928,-7.953125,-9.78125,5.421875
1695730183717,-0.24536133,-0.92510986,0.30706787,-6.21875,-12.859375,4.75
1695730183761,-0.22021484,-0.9380493,0.3847046,-5.828125,-11.734375,3.703125
1695730183789,-0.21948242,-0.9319458,0.4052124,-10.0625,-14.34375,6.171875
1695730183834,-0.2998047,-0.96954346,0.37078857,-6.984375,-13.46875,9.6875
1695730183864,-0.3095703,-0.97320557,0.35369873,-11.203125,-8.453125,5.375
1695730183909,-0.21826172,-0.89556885,0.36102295,-12.625,0.234375,1.46875
1695730183953,-0.2290039,-0.9356079,0.36761475,-10.421875,6.015625,6.0625
1695730183985,-0.25170898,-0.9439087,0.41864014,-5.03125,-1.578125,5.859375
1695730184029,-0.23095703,-0.91290283,0.40618896,1.515625,-13.5,6.5625
1695730184075,-0.22460938,-0.9331665,0.40960693,-2.375,-5.59375,3.46875
1695730184105,-0.15576172,-0.9458618,0.39520264,-4.375,-2.546875,0.578125
1695730184164,-0.20385742,-0.9260864,0.4064331,9.421875,-8.96875,7.65625
1695730184179,-0.265625,-0.960022,0.39959717,-3.796875,-6.234375,3.03125
1695730184229,-0.19360352,-0.9277954,0.36590576,2.921875,-8.125,2.359375
1695730184269,-0.1965332,-0.93170166,0.4159546,0.6875,-2.171875,3.4375
1695730184299,-0.22949219,-0.94415283,0.33416748,-9.4375,-1.015625,0.03125
1695730184344,-0.1640625,-0.9480591,0.41815186,7.28125,-4.71875,2.203125
1695730184389,-0.19873047,-0.97247314,0.4718628,-4.46875,-3.046875,2.4375
1695730184419,-0.23095703,-0.92633057,0.31219482,-6.40625,-5.015625,1.203125
1695730184464,-0.15966797,-0.9636841,0.41864014,2.984375,2.53125,2.125
1695730184494,-0.1953125,-0.991272,0.46014404,-4.46875,-3.0,3.84375
1695730184539,-0.23608398,-0.9175415,0.36590576,-4.046875,1.296875,0.9375
1695730184584,-0.23583984,-0.87506104,0.37738037,0.609375,-2.390625,-0.15625
1695730184614,-0.2133789,-1.0025024,0.42401123,-5.140625,1.84375,0.15625
1695730184659,-0.21362305,-0.9209595,0.42913818,-4.078125,6.4375,-0.984375
1695730184704,-0.2055664,-0.91973877,0.4081421,-2.140625,2.609375,-1.703125
1695730184739,-0.22021484,-0.92510986,0.3776245,-5.21875,3.421875,-2.5
1695730184779,-0.21264648,-0.9209595,0.44989014,2.46875,4.28125,0.96875
1695730184809,-0.22045898,-0.95684814,0.45306396,-4.046875,3.5,-1.421875
1695730184854,-0.23242188,-0.91290283,0.39569092,-3.984375,4.484375,-3.8125
1695730184900,-0.20605469,-0.92633057,0.4381714,2.0,5.0,-1.25
1695730184929,-0.20483398,-0.95147705,0.43670654,0.03125,3.1875,-2.046875
1695730184974,-0.23364258,-0.9143677,0.39056396,-1.015625,7.328125,-4.640625
1695730185019,-0.21972656,-0.9338989,0.4328003,3.9375,4.28125,-1.65625
1695730185050,-0.18896484,-0.972229,0.45404053,-2.4375,5.40625,-3.21875
1695730185095,-0.21191406,-0.8887329,0.39178467,1.703125,3.8125,-2.5625
1695730185123,-0.23828125,-0.94195557,0.43133545,1.125,3.359375,-1.6875
1695730185169,-0.21875,-0.97247314,0.44500732,2.875,3.078125,-2.421875
1695730185213,-0.21435547,-0.894104,0.4081421,0.28125,3.671875,-2.296875
1695730185243,-0.2548828,-0.9204712,0.41741943,2.609375,2.671875,-1.859375
1695730185289,-0.22753906,-0.9644165,0.41741943,0.4375,4.53125,-2.9375
1695730185335,-0.19458008,-0.9133911,0.4076538,0.59375,3.765625,-3.9375
1695730185364,-0.23608398,-0.95391846,0.43133545,4.21875,4.359375,-2.84375
1695730185409,-0.2331543,-0.9265747,0.41693115,2.375,4.75,-3.109375
1695730185439,-0.2548828,-0.9146118,0.3920288,2.40625,3.140625,-3.671875
1695730185485,-0.26123047,-0.95269775,0.41912842,2.734375,6.84375,-5.359375
1695730185529,-0.26757812,-0.9104614,0.38641357,6.1875,3.765625,-5.953125
1695730185558,-0.2770996,-0.92926025,0.3685913,1.609375,7.921875,-7.75
1695730185603,-0.2434082,-0.95562744,0.39642334,6.078125,8.171875,-6.4375
1695730185649,-0.2409668,-0.9121704,0.38079834,1.265625,7.25,-4.90625
1695730185679,-0.26611328,-0.92974854,0.3764038,5.765625,8.40625,-5.890625
1695730185725,-0.28637695,-0.95025635,0.35736084,4.484375,3.5,-4.375
1695730185754,-0.24707031,-0.9595337,0.3756714,4.03125,6.53125,-4.453125
1695730185799,-0.26342773,-0.93927,0.38201904,2.609375,3.25,-2.8125
1695730185846,-0.28393555,-0.9187622,0.32196045,1.59375,3.625,-1.0625
1695730185874,-0.23803711,-0.9656372,0.3637085,4.828125,3.234375,0.28125
1695730185920,-0.25024414,-0.9668579,0.36834717,0.171875,0.078125,2.25
1695730185965,-0.26831055,-0.9470825,0.3307495,-2.1875,1.0625,2.734375
1695730185994,-0.2746582,-0.98101807,0.38983154,0.609375,-0.171875,5.765625
1695730186039,-0.30371094,-0.91363525,0.33221436,-9.015625,-0.3125,8.015625
1695730186069,-0.27978516,-0.96221924,0.37860107,-6.203125,3.65625,6.40625
1695730186115,-0.2619629,-0.9614868,0.42962646,-3.890625,0.59375,4.9375
1695730186159,-0.28149414,-0.8887329,0.32904053,-17.921875,2.578125,4.984375
1695730186189,-0.20922852,-0.94537354,0.43914795,-3.875,4.390625,3.40625
1695730186234,-0.23657227,-0.93463135,0.4569702,-6.28125,-1.359375,4.828125
1695730186280,-0.2734375,-0.88409424,0.38006592,-10.734375,4.28125,2.21875
1695730186309,-0.1862793,-0.9968872,0.5006714,-1.125,2.40625,0.265625
1695730186355,-0.1821289,-0.9336548,0.47772217,-5.890625,0.28125,1.359375
1695730186384,-0.26171875,-0.8413696,0.40838623,-6.21875,3.046875,-1.078125
1695730186429,-0.23022461,-0.88946533,0.48114014,0.921875,-0.9375,-0.1875
1695730186476,-0.2277832,-0.9089966,0.47283936,-4.109375,-2.203125,0.765625
1695730186506,-0.21435547,-0.9468384,0.4520874,-7.46875,3.53125,-3.6875
1695730186565,-0.19335938,-0.94317627,0.50823975,5.453125,-1.625,-1.765625
1695730186595,-0.2421875,-0.8052368,0.40716553,-7.671875,0.15625,0.125
1695730186625,-0.19921875,-0.9224243,0.4520874,-2.21875,5.15625,-0.078125
1695730186670,-0.2006836,-1.0130005,0.5302124,4.0,-2.921875,2.125
1695730186714,-0.26098633,-0.85479736,0.38201904,-9.640625,0.328125,-1.828125
1695730186746,-0.21704102,-0.892395,0.47113037,9.953125,3.375,-0.796875
1695730186789,-0.22143555,-0.9807739,0.53656006,1.765625,-1.171875,0.671875
1695730186819,-0.27001953,-0.88409424,0.3842163,-8.125,0.765625,-2.28125
1695730186864,-0.22290039,-0.9524536,0.49139404,8.71875,1.953125,-1.28125
1695730186909,-0.22583008,-0.93463135,0.5062866,-1.65625,-3.359375,-0.5
1695730186939,-0.3154297,-0.847229,0.35760498,-3.859375,0.515625,-1.796875
1695730186987,-0.26245117,-0.94195557,0.49578857,10.390625,-0.09375,-1.53125
1695730187045,-0.2536621,-0.9365845,0.4562378,-3.15625,-5.21875,-4.0
1695730187059,-0.25927734,-0.9390259,0.45550537,-7.5,5.46875,-1.5625
1695730187109,-0.1665039,-0.9871216,0.53826904,7.25,-0.21875,-0.03125
1695730187139,-0.2626953,-0.82647705,0.40716553,-6.0,-1.53125,-0.25
1695730187178,-0.31079102,-0.8267212,0.38641357,-4.09375,2.0,0.09375
1695730187223,-0.25268555,-0.98101807,0.5162964,14.171875,-1.375,-0.921875
1695730187255,-0.26171875,-0.89801025,0.43475342,-4.46875,-1.140625,-2.5625
1695730187298,-0.23364258,-0.8982544,0.4389038,3.703125,6.234375,-0.1875
1695730187347,-0.24536133,-0.91607666,0.4442749,7.421875,-1.890625,0.46875
1695730187373,-0.26660156,-0.8880005,0.38568115,-1.5,2.3125,0.53125
1695730187418,-0.22949219,-0.9981079,0.4694214,15.34375,3.40625,2.5625
1695730187449,-0.2548828,-0.9680786,0.43548584,3.71875,-3.953125,0.46875
1695730187496,-0.28686523,-0.89971924,0.4220581,-0.625,0.890625,0.578125
1695730187539,-0.28125,-0.95098877,0.37469482,4.28125,-1.078125,-1.390625
1695730187570,-0.21850586,-0.954895,0.40203857,0.296875,3.421875,2.328125
1695730187615,-0.2841797,-0.8796997,0.43865967,-3.296875,-2.09375,1.4375
1695730187692,-0.29052734,-0.97003174,0.39422607,2.125,0.15625,-0.796875
1695730187696,-0.2553711,-0.9746704,0.40447998,-5.53125,2.953125,-0.03125
1695730187733,-0.2006836,-0.86309814,0.43621826,-0.46875,-0.765625,1.546875
1695730187763,-0.2548828,-0.9937134,0.39007568,-1.1875,-0.703125,1.109375
1695730187809,-0.25585938,-0.94488525,0.43865967,-2.265625,12.53125,1.65625
1695730187855,-0.2133789,-0.8677368,0.43133545,5.609375,4.40625,3.46875
1695730187885,-0.23461914,-0.9331665,0.32659912,-4.28125,7.484375,2.234375
1695730187928,-0.19311523,-0.9221802,0.46136475,9.59375,5.546875,3.90625
1695730187981,-0.20605469,-0.9241333,0.40472412,3.3125,0.46875,0.921875
1695730188004,-0.25952148,-0.94781494,0.33319092,1.6875,3.71875,0.8125
1695730188047,-0.20996094,-0.9143677,0.3883667,2.59375,0.0625,1.84375
1695730188077,-0.20458984,-0.94073486,0.35882568,-5.953125,0.15625,-1.734375
1695730188122,-0.23510742,-0.944397,0.43963623,3.171875,3.109375,3.1875
1695730188168,-0.25463867,-0.9649048,0.447937,-1.75,-2.640625,3.703125
1695730188201,-0.26342773,-0.98150635,0.34490967,-7.625,0.96875,-3.015625
1695730188258,-0.18359375,-0.928772,0.40594482,-0.71875,5.890625,-2.796875
1695730188290,-0.15795898,-0.92315674,0.4520874,-2.28125,0.609375,2.578125
1695730188319,-0.25439453,-0.958313,0.37835693,-2.3125,-0.75,2.765625
1695730188364,-0.24560547,-0.91656494,0.3932495,5.390625,-1.84375,-1.15625
1695730188399,-0.24853516,-0.9434204,0.37469482,-6.140625,-2.1875,0.625
1695730188440,-0.19213867,-0.94659424,0.4303589,2.484375,-4.046875,1.796875
1695730188485,-0.2175293,-0.9380493,0.42401123,0.609375,-3.546875,-0.40625
1695730188513,-0.23706055,-0.93707275,0.36810303,-5.390625,0.0,-1.1875
1695730188559,-0.22265625,-0.9343872,0.44085693,0.46875,0.046875,0.40625
1695730188605,-0.24707031,-0.95977783,0.3908081,-7.765625,-0.9375,-2.84375
1695730188635,-0.21875,-0.9590454,0.42523193,0.609375,4.296875,-0.390625
1695730188680,-0.20581055,-0.8994751,0.4533081,-1.140625,4.734375,-0.25
1695730188725,-0.23388672,-0.92559814,0.40179443,0.578125,0.671875,0.765625
1695730188755,-0.20385742,-0.9429321,0.4093628,3.0625,-1.125,2.71875
1695730188799,-0.24072266,-0.9260864,0.43621826,-4.8125,0.265625,-3.109375
1695730188829,-0.24194336,-0.9385376,0.39398193,-1.171875,2.40625,0.4375
1695730188874,-0.21484375,-0.928772,0.4335327,2.4375,-0.234375,1.78125
1695730188921,-0.2619629,-0.923645,0.4154663,-3.625,-2.359375,-1.6875
1695730188949,-0.21850586,-0.95440674,0.41937256,-0.59375,1.75,1.390625
1695730188996,-0.24023438,-0.93634033,0.44989014,2.171875,-3.4375,1.875
1695730189024,-0.24731445,-0.92144775,0.37347412,-4.234375,0.609375,-1.53125
1695730189084,-0.2055664,-0.90704346,0.39544678,4.0,-0.828125,3.484375
1695730189114,-0.24414062,-0.9612427,0.43841553,-2.125,2.046875,2.109375
1695730189145,-0.20996094,-0.94732666,0.3805542,0.78125,3.359375,-0.15625
1695730189189,-0.19604492,-0.93634033,0.42425537,6.8125,-2.359375,2.859375
1695730189235,-0.20703125,-0.94976807,0.41619873,-1.09375,2.59375,-0.03125
1695730189264,-0.21411133,-0.9199829,0.385437,1.515625,4.0625,0.46875
1695730189310,-0.19140625,-0.95098877,0.42230225,3.328125,1.421875,3.59375
1695730189339,-0.20458984,-0.9492798,0.39593506,-1.9375,0.90625,-0.34375
1695730189388,-0.20800781,-0.93829346,0.3690796,-2.78125,4.1875,0.09375
1695730189429,-0.18896484,-0.9365845,0.43719482,3.25,3.4375,1.375
1695730189459,-0.23803711,-0.9429321,0.41986084,-1.859375,-1.09375,-1.109375
1695730189504,-0.22314453,-0.9277954,0.36688232,-4.921875,3.09375,-2.171875
1695730189551,-0.19848633,-0.9439087,0.45159912,1.34375,3.0,0.609375
1695730189579,-0.25463867,-0.9673462,0.39520264,0.125,0.421875,-3.015625
1695730189624,-0.2211914,-0.91973877,0.38494873,0.984375,3.796875,-2.5625
1695730189658,-0.16992188,-0.925354,0.42523193,-0.5,3.609375,0.46875
1695730189698,-0.21386719,-0.9324341,0.41448975,-1.609375,3.21875,0.78125
1695730189744,-0.21313477,-0.9429321,0.4022827,-2.75,2.078125,0.765625
1695730189776,-0.234375,-0.9546509,0.43060303,-1.203125,1.46875,-1.78125
1695730189819,-0.24169922,-0.9234009,0.41204834,-1.640625,2.46875,-1.890625
1695730189865,-0.19506836,-0.9151001,0.4142456,-1.84375,3.03125,0.890625
1695730189894,-0.17993164,-0.944397,0.4244995,-2.0625,2.5,0.96875
1695730189956,-0.19799805,-0.9248657,0.44500732,0.984375,2.046875,1.140625
1695730189968,-0.23657227,-0.94415283,0.4088745,-1.125,0.796875,1.734375
1695730190015,-0.20581055,-0.9492798,0.416687,0.125,1.09375,0.46875
1695730190073,-0.19897461,-0.940979,0.45355225,2.5625,1.53125,0.75
1695730190088,-0.23608398,-0.92388916,0.4081421,-0.796875,-0.015625,-1.921875
1695730190136,-0.19213867,-0.92022705,0.43475342,-1.03125,1.1875,0.6875
1695730190179,-0.20458984,-0.95196533,0.45306396,-1.8125,0.984375,2.484375
1695730190209,-0.25048828,-0.93634033,0.42938232,-2.15625,-1.65625,-2.0
1695730190255,-0.21826172,-0.9224243,0.401062,-6.703125,-2.4375,-2.03125
1695730190299,-0.21142578,-0.91973877,0.43450928,0.453125,0.421875,-2.328125
1695730190329,-0.23413086,-0.90997314,0.40985107,-6.46875,-0.546875,-0.390625
1695730190373,-0.1940918,-0.92437744,0.44989014,2.9375,0.828125,-0.328125
1695730190404,-0.21704102,-0.9524536,0.46551514,-0.875,-3.6875,-2.8125
1695730190451,-0.26245117,-0.89849854,0.3834839,-7.21875,-0.4375,-0.3125
1695730190497,-0.19018555,-0.987854,0.49261475,4.5625,1.46875,1.375
1695730190524,-0.23168945,-0.9077759,0.4406128,-2.609375,-4.015625,-2.03125
1695730190569,-0.26342773,-0.8753052,0.36395264,-4.640625,1.875,0.40625
1695730190614,-0.18847656,-1.0042114,0.51239014,7.671875,-1.421875,3.5625
1695730190644,-0.234375,-0.9055786,0.41741943,-8.578125,-2.78125,-2.53125
1695730190690,-0.28100586,-0.86602783,0.38812256,-2.546875,-0.15625,-0.203125
1695730190721,-0.18383789,-0.989563,0.49041748,3.125,-0.25,0.875
1695730190764,-0.26245117,-0.88653564,0.4196167,-6.28125,-2.078125,-1.5625
1695730190810,-0.26098633,-0.913147,0.43597412,-1.359375,4.578125,0.328125
1695730190841,-0.2006836,-0.97613525,0.49700928,0.234375,-2.171875,0.65625
1695730190886,-0.22631836,-0.9143677,0.4154663,-3.578125,-1.046875,0.265625
1695730190959,-0.18652344,-0.95684814,0.50531006,4.78125,3.375,1.046875
1695730190961,-0.23388672,-0.8779907,0.4545288,0.609375,1.984375,1.03125
1695730191003,-0.29858398,-0.8098755,0.3583374,0.390625,0.84375,1.4375
1695730191078,-0.2685547,-0.9824829,0.42230225,13.734375,-0.84375,3.21875
1695730191080,-0.2097168,-1.0357056,0.5006714,7.796875,0.203125,1.0
1695730191124,-0.24169922,-0.95684814,0.41204834,-7.3125,4.921875,-3.015625
1695730191158,-0.17944336,-0.8880005,0.44696045,4.046875,3.140625,3.546875
1695730191199,-0.19921875,-0.8687134,0.42059326,1.71875,4.9375,4.40625
1695730191245,-0.2927246,-0.94195557,0.33050537,-2.890625,4.34375,1.40625
1695730191275,-0.16040039,-0.9854126,0.4298706,4.546875,9.265625,0.21875
1695730191319,-0.16210938,-0.960022,0.47332764,-1.40625,1.78125,1.890625
1695730191350,-0.22851562,-0.94195557,0.38763428,-5.515625,5.140625,-1.796875
1695730191394,-0.18823242,-0.84942627,0.4076538,8.609375,3.578125,4.40625
1695730191456,-0.20410156,-0.89630127,0.385437,-5.078125,2.671875,2.1875
1695730191469,-0.25268555,-1.0164185,0.4093628,-0.9375,-0.4375,-0.125
1695730191516,-0.2290039,-0.9849243,0.48431396,4.828125,1.375,-2.234375
1695730191558,-0.19677734,-0.90338135,0.418396,-0.6875,3.859375,-3.5625
1695730191589,-0.19970703,-0.91119385,0.3529663,-4.890625,1.234375,-0.546875
1695730191636,-0.15771484,-0.94903564,0.42279053,5.515625,-1.234375,2.75
1695730191680,-0.20996094,-0.9351196,0.41253662,-3.453125,-3.21875,1.015625
1695730191709,-0.23730469,-0.95928955,0.4244995,4.546875,-4.796875,3.515625
1695730191755,-0.19140625,-0.94781494,0.44696045,7.5625,-4.625,3.75
1695730191784,-0.18896484,-0.89019775,0.35980225,-2.5,-1.9375,-1.703125
1695730191829,-0.21533203,-0.9385376,0.3475952,6.171875,-7.34375,3.75
1695730191874,-0.21972656,-0.9758911,0.44647217,3.9375,-6.578125,3.296875
1695730191904,-0.22558594,-0.98394775,0.3847046,-4.3125,-0.15625,-2.765625
1695730191949,-0.19921875,-0.94122314,0.39178467,2.484375,6.765625,-2.8125
1695730191978,-0.18237305,-0.9265747,0.38812256,-2.25,1.015625,0.265625
1695730192023,-0.2043457,-0.9541626,0.3661499,-1.53125,-1.265625,0.75
1695730192069,-0.20336914,-0.95562744,0.39544678,0.6875,-1.75,-0.28125
1695730192099,-0.2548828,-0.9116821,0.40374756,-2.640625,2.6875,-2.125
1695730192144,-0.25756836,-0.92633057,0.3390503,-2.28125,-2.046875,-0.203125
1695730192187,-0.19946289,-0.9824829,0.39764404,5.25,-7.234375,1.125
1695730192218,-0.16137695,-0.96759033,0.4257202,-1.34375,-1.828125,-0.53125
1695730192264,-0.19091797,-0.98321533,0.43963623,0.9375,5.625,4.390625
1695730192294,-0.2121582,-0.895813,0.39007568,-5.9375,0.078125,-1.25
1695730192341,-0.23901367,-0.8740845,0.30194092,1.46875,1.84375,-1.578125
1695730192389,-0.20019531,-0.9898071,0.39935303,10.734375,-5.984375,6.0625
1695730192429,-0.19213867,-1.0088501,0.4923706,0.46875,1.1875,-1.171875
1695730192459,-0.2692871,-0.92315674,0.32855225,-12.078125,2.421875,-2.453125
1695730192505,-0.17382812,-0.91412354,0.34857178,6.21875,5.296875,1.921875
1695730192535,-0.1459961,-0.94610596,0.4442749,0.828125,-2.71875,1.203125
1695730192579,-0.21948242,-0.94488525,0.36834717,-6.375,5.34375,-2.8125
1695730192609,-0.26782227,-0.95880127,0.33416748,7.890625,-0.515625,2.234375
1695730192657,-0.20947266,-0.97247314,0.434021,2.9375,2.15625,-2.171875
1695730192698,-0.1977539,-0.91607666,0.36419678,-4.4375,-0.140625,-2.953125
1695730192728,-0.22192383,-0.9585571,0.32391357,3.625,2.5625,0.84375
1695730192775,-0.22314453,-0.9751587,0.402771,3.703125,-0.71875,0.8125
1695730192819,-0.2097168,-0.98028564,0.37713623,-3.5625,2.296875,-1.078125
1695730192849,-0.21728516,-0.91485596,0.35247803,-4.75,1.0625,-1.875
1695730192894,-0.21923828,-0.91778564,0.35491943,-4.265625,2.046875,-0.84375
1695730192924,-0.23266602,-0.9546509,0.36541748,2.75,0.5,0.984375
1695730192972,-0.25927734,-0.92852783,0.39300537,0.71875,-1.34375,-2.453125
1695730193013,-0.28637695,-0.9846802,0.2826538,-5.046875,-6.8125,-0.71875
1695730193043,-0.0949707,-1.0527954,0.5018921,7.015625,9.578125,7.71875
1695730193089,-0.09814453,-0.9234009,0.46429443,-5.59375,2.328125,5.171875
1695730193170,-0.29516602,-0.8064575,0.2296753,-6.03125,2.4375,-0.6875
1695730193177,-0.2536621,-0.9121704,0.32073975,18.71875,-7.015625,4.140625
1695730193209,-0.18017578,-1.0979614,0.51239014,0.328125,-1.625,0.0625
1695730193239,-0.17895508,-0.9607544,0.33221436,-9.328125,2.765625,-2.71875
1695730193284,-0.21923828,-0.88238525,0.34539795,7.46875,4.90625,0.71875
1695730193329,-0.22705078,-0.9194946,0.3522339,-7.53125,-0.046875,2.09375
1695730193359,-0.20776367,-0.99786377,0.38812256,-3.5,5.703125,2.09375
1695730193404,-0.17504883,-1.0122681,0.45062256,1.5,2.484375,-2.421875
1695730193448,-0.18920898,-0.9216919,0.37005615,-3.59375,0.8125,-3.9375
1695730193480,-0.18554688,-0.89556885,0.3156128,2.65625,0.96875,-0.921875
1695730193524,-0.1616211,-0.991272,0.39788818,3.84375,-2.015625,-3.34375
1695730193569,-0.2055664,-0.99298096,0.3649292,-4.140625,-2.75,-5.515625
1695730193599,-0.20654297,-0.9307251,0.34295654,2.640625,0.875,-0.484375
1695730193644,-0.20410156,-0.9234009,0.3829956,2.0,-2.40625,-0.96875
1695730193674,-0.29077148,-0.8635864,0.2555542,-4.21875,-5.171875,-8.453125
1695730193719,-0.31933594,-1.0737915,0.3505249,-1.421875,1.828125,1.8125
1695730193765,-0.028320312,-1.11969,0.62542725,3.78125,4.5625,6.703125
1695730193794,-0.18530273,-0.8286743,0.34051514,-16.890625,4.21875,-0.390625
1695730193840,-0.41992188,-0.6946411,0.1564331,1.046875,2.578125,-0.609375
1695730193868,-0.25805664,-1.0100708,0.42132568,23.75,-2.84375,5.109375
1695730193918,-0.1262207,-1.170227,0.5084839,-9.59375,1.65625,0.640625
1695730193958,-0.19677734,-0.92559814,0.3373413,-4.453125,7.765625,-4.109375
1695730193988,-0.24243164,-0.8015747,0.32537842,9.546875,0.71875,-1.59375
1695730194038,-0.21850586,-0.8748169,0.32659912,-3.28125,3.03125,5.484375
1695730194078,-0.1484375,-1.055481,0.3944702,3.453125,4.734375,1.75
1695730194107,-0.22192383,-1.046936,0.42962646,6.109375,3.984375,-3.609375
1695730194152,-0.26538086,-0.88482666,0.2999878,-5.296875,1.765625,0.625
1695730194204,-0.10620117,-0.9573364,0.3781128,2.890625,8.359375,4.234375
1695730194228,-0.19213867,-0.9859009,0.4171753,1.734375,-0.203125,1.09375
1695730194273,-0.3256836,-0.90216064,0.23919678,-5.625,0.296875,-1.21875
1695730194303,-0.19262695,-1.0078735,0.38885498,10.90625,2.96875,3.890625
1695730194349,-0.14550781,-0.9602661,0.3920288,-4.5625,-2.203125,0.203125
1695730194392,-0.27197266,-0.8960571,0.2584839,-9.671875,1.65625,-2.796875
1695730194422,-0.22021484,-1.0264282,0.40472412,10.609375,-0.515625,3.890625
1695730194468,-0.1928711,-0.93536377,0.36712646,-4.453125,0.65625,-0.71875
1695730194513,-0.29541016,-0.9282837,0.24432373,-8.8125,1.765625,-0.046875
1695730194542,-0.025634766,-1.112854,0.5438843,8.75,7.265625,7.765625
1695730194588,-0.14892578,-0.8850708,0.36956787,-8.390625,-1.734375,-1.234375
1695730194618,-0.35742188,-0.7451782,0.17376709,-2.90625,4.78125,-4.796875
1695730194663,-0.19897461,-1.0440063,0.4159546,22.125,-4.671875,2.0625
1695730194708,-0.09008789,-1.1152954,0.46551514,-9.84375,0.984375,0.34375
1695730194738,-0.21899414,-0.8936157,0.2765503,-11.046875,6.390625,-1.84375
1695730194782,-0.2397461,-0.9143677,0.3612671,11.65625,0.484375,1.296875
1695730194829,-0.22314453,-0.9282837,0.35150146,-8.125,1.53125,2.703125
1695730194859,-0.18432617,-0.98565674,0.35858154,-0.921875,5.234375,1.78125
1695730194903,-0.1694336,-1.0100708,0.39764404,0.765625,-0.3125,-1.96875
1695730194934,-0.21069336,-0.9429321,0.33148193,-3.3125,-0.15625,-3.125
1695730194995,-0.16479492,-0.94854736,0.3529663,1.015625,1.390625,2.125
1695730195024,-0.18066406,-0.9692993,0.3739624,-0.625,-5.171875,-1.6875
1695730195054,-0.24707031,-0.9788208,0.34320068,-3.375,-1.34375,-2.171875
1695730195100,-0.17138672,-0.9414673,0.369812,-1.671875,-1.421875,-0.1875
1695730195174,-0.22436523,-0.92193604,0.34857178,-1.578125,-5.75,-2.25
1695730195188,-0.2512207,-0.9644165,0.36517334,0.015625,-0.09375,0.84375
1695730195220,-0.2368164,-0.9221802,0.3944702,2.984375,-1.234375,0.515625
1695730195280,-0.29541016,-0.9216919,0.25482178,-10.59375,-2.4375,-3.546875
1695730195293,-0.028564453,-1.11969,0.5128784,6.234375,10.125,7.5625
1695730195339,-0.072021484,-0.9380493,0.42303467,-0.234375,-4.59375,3.265625
1695730195369,-0.37890625,-0.756897,0.21014404,-13.03125,1.8125,-4.71875
1695730195414,-0.27685547,-0.9573364,0.35247803,18.75,0.859375,4.125
1695730195462,-0.09082031,-1.1184692,0.52142334,-3.53125,2.921875,1.84375
1695730195504,-0.15673828,-0.92803955,0.30682373,-6.5,5.0625,-1.9375
1695730195534,-0.20239258,-0.90093994,0.35736084,10.765625,4.84375,1.640625
1695730195565,-0.20288086,-0.9151001,0.38446045,-1.234375,2.25,3.203125
1695730195609,-0.25317383,-0.95025635,0.28778076,-0.984375,5.984375,-0.421875
1695730195653,-0.140625,-1.0459595,0.43572998,10.953125,5.6875,0.5
1695730195684,-0.15161133,-0.97076416,0.37664795,1.296875,3.515625,2.640625
1695730195728,-0.22436523,-0.90411377,0.30145264,-4.1875,5.625,0.609375
1695730195773,-0.19555664,-1.0015259,0.39276123,9.65625,0.25,3.59375
1695730195805,-0.18676758,-0.9859009,0.34320068,-10.84375,1.96875,-2.640625
1695730195848,-0.1862793,-0.9512329,0.31707764,1.796875,5.046875,-0.828125
1695730195878,-0.1237793,-0.9602661,0.38861084,2.4375,-2.84375,0.984375
1695730195953,-0.21142578,-0.9053345,0.3373413,-11.0625,-4.546875,-3.484375
1695730195968,-0.27539062,-0.9690552,0.38104248,-10.53125,-0.3125,-7.15625
1695730195999,-0.1574707,-0.9951782,0.34173584,-1.265625,3.703125,-8.578125
1695730196044,-0.19921875,-1.0142212,0.46429443,-0.453125,8.953125,-4.65625
1695730196089,-0.0146484375,-0.9697876,0.49725342,27.859375,4.703125,10.140625
1695730196119,-0.27075195,-0.8147583,0.27557373,5.796875,12.140625,5.625
1695730196164,-0.33618164,-0.80059814,0.036071777,-3.5,-13.203125,-3.1875
1695730196256,-0.057617188,-1.1414185,0.5248413,35.015625,-11.8125,8.71875
1695730196260,-0.043945312,-1.0073853,0.3180542,-21.53125,-4.125,5.859375
1695730196302,-0.28955078,-0.8809204,0.18377686,-3.78125,-3.078125,2.578125
1695730196315,-0.12841797,-1.034729,0.4154663,11.59375,7.40625,0.90625
1695730196374,-0.14477539,-0.98687744,0.33270264,-7.765625,-4.734375,1.265625
1695730196404,-0.23779297,-0.9483032,0.24163818,-3.125,1.046875,0.34375
1695730196433,-0.1784668,-0.97857666,0.36395264,6.453125,0.453125,-2.125
1695730196479,-0.18676758,-0.9729614,0.29779053,-11.375,-1.328125,-2.53125
1695730196509,-0.16845703,-0.97442627,0.29412842,0.375,0.96875,-2.609375
1695730196569,-0.15039062,-0.98516846,0.35076904,-0.6875,-3.25,-3.0625
1695730196599,-0.24731445,-0.9558716,0.29534912,-4.375,-1.03125,-3.484375
1695730196674,-0.23095703,-0.97198486,0.3065796,2.875,1.328125,-1.890625
1695730196676,-0.20654297,-0.97320557,0.3444214,0.0625,-2.71875,-2.703125
1695730196718,-0.2397461,-0.94073486,0.26190186,-0.8125,-1.359375,-2.28125
1695730196748,-0.26000977,-0.9890747,0.2555542,1.203125,-3.84375,0.328125
1695730196809,-0.15185547,-1.019104,0.38079834,-0.875,4.53125,1.515625
1695730196839,-0.07910156,-1.0325317,0.36956787,-5.828125,6.234375,6.703125
1695730196870,-0.15551758,-0.87872314,0.30877686,5.453125,0.453125,5.84375
1695730196929,-0.32592773,-0.85479736,0.24407959,0.71875,-2.421875,0.203125
1695730196944,-0.2697754,-1.0093384,0.30633545,4.453125,0.4375,1.640625
1695730196989,-0.0625,-1.1038208,0.4520874,-1.03125,2.953125,0.109375
1695730197035,-0.12988281,-0.92681885,0.30999756,-6.625,2.078125,-0.40625
1695730197066,-0.23486328,-0.8533325,0.26409912,-2.53125,1.5,1.84375
1695730197109,-0.16308594,-1.0120239,0.37127686,5.25,-1.703125,2.046875
1695730197139,-0.17895508,-1.0046997,0.3222046,-6.71875,0.96875,-0.359375
1695730197182,-0.19384766,-0.9368286,0.3139038,1.578125,3.515625,-2.28125
1695730197229,-0.13964844,-0.96295166,0.3439331,1.359375,3.046875,0.796875
1695730197259,-0.2019043,-0.9522095,0.32611084,-2.828125,0.140625,0.03125
1695730197305,-0.21582031,-0.99346924,0.3131714,-0.265625,2.78125,-2.765625
1695730197349,-0.16308594,-1.003479,0.3505249,-1.0625,4.171875,-0.796875
1695730197379,-0.20239258,-0.9468384,0.30438232,-2.109375,1.84375,-1.046875
1695730197428,-0.17993164,-0.96881104,0.3048706,-4.390625,3.375,-1.859375
1695730197455,-0.16845703,-0.9829712,0.36883545,0.296875,0.9375,0.453125
1695730197500,-0.22265625,-0.9697876,0.307312,-8.734375,1.84375,-1.46875
1695730197550,-0.18847656,-0.9668579,0.35247803,-0.484375,1.359375,-0.875
1695730197575,-0.20288086,-0.9475708,0.33685303,-6.171875,0.40625,-1.203125
1695730197634,-0.23486328,-0.9402466,0.30975342,-5.578125,3.203125,-3.546875
1695730197667,-0.22485352,-0.99176025,0.3685913,-1.859375,0.40625,-2.28125
1695730197694,-0.06665039,-1.0564575,0.44525146,-8.890625,8.28125,2.171875
1695730197740,-0.118896484,-0.911438,0.3834839,-1.0625,0.453125,2.5625
1695730197786,-0.30126953,-0.80914307,0.2892456,-7.75,2.0,-2.953125
1695730197816,-0.28710938,-0.9421997,0.36053467,5.65625,2.703125,-1.203125
1695730197860,-0.12719727,-1.0735474,0.45794678,2.703125,5.28125,1.65625
1695730197889,-0.15136719,-0.91973877,0.35516357,-2.734375,2.484375,-0.84375
1695730197941,-0.20483398,-0.88116455,0.34320068,1.984375,2.859375,2.84375
1695730197980,-0.15771484,-0.9805298,0.4039917,-0.15625,1.234375,3.5
1695730198008,-0.2055664,-0.98516846,0.369812,-0.5625,0.28125,0.25
1695730198055,-0.20361328,-0.98443604,0.3710327,0.78125,3.546875,-1.171875
1695730198100,-0.14257812,-0.9553833,0.40838623,1.921875,1.765625,0.09375
1695730198129,-0.20727539,-0.8880005,0.31048584,-3.03125,1.0625,0.953125
1695730198174,-0.20947266,-1.0027466,0.38250732,4.21875,2.234375,-0.78125
1695730198204,-0.18164062,-0.99957275,0.38446045,0.03125,-0.640625,-0.796875
1695730198249,-0.21435547,-0.93048096,0.3468628,-5.09375,3.328125,-1.734375
1695730198294,-0.15112305,-0.97125244,0.39935303,0.3125,-0.484375,-1.59375
1695730198324,-0.18237305,-0.9365845,0.37249756,-9.984375,-3.0625,-1.65625
1695730198369,-0.2680664,-0.9351196,0.43719482,-8.359375,0.140625,-4.140625
1695730198446,-0.20043945,-0.98101807,0.3829956,1.203125,-7.359375,-7.796875
1695730198449,-0.15991211,-1.0083618,0.38641357,-0.671875,3.140625,-5.875
1695730198490,-0.11010742,-0.93096924,0.39569092,-4.125,9.140625,2.890625
1695730198566,-0.18579102,-0.8755493,0.41326904,25.140625,-0.75,8.9375
1695730198569,-0.36767578,-0.88848877,0.29901123,3.640625,-2.40625,1.09375
1695730198609,-0.23608398,-0.9155884,0.28363037,13.296875,-8.453125,0.40625
1695730198639,-0.053466797,-1.019104,0.4467163,3.09375,-0.28125,10.71875
1695730198684,-0.18676758,-0.9505005,0.30096436,-9.125,-3.125,4.8125
1695730198729,-0.24169922,-0.9907837,0.34368896,2.9375,3.703125,1.6875
1695730198759,-0.13671875,-0.9768677,0.3944702,2.421875,1.390625,4.140625
1695730198804,-0.20092773,-0.95684814,0.31756592,-5.015625,0.21875,3.4375
1695730198835,-0.19848633,-0.9783325,0.32904053,0.1875,3.265625,-1.78125
1695730198879,-0.13208008,-0.9907837,0.38275146,1.28125,2.875,0.265625
1695730198925,-0.18481445,-0.93707275,0.2970581,-4.40625,2.875,-1.34375
1695730198956,-0.171875,-0.9768677,0.35369873,3.921875,2.421875,0.875
1695730199000,-0.20703125,-0.95440674,0.3456421,-5.390625,0.828125,-1.640625
1695730199045,-0.21362305,-0.95806885,0.32147217,-0.578125,2.703125,-2.3125
1695730199074,-0.12768555,-0.9890747,0.3505249,0.3125,2.453125,0.171875
1695730199119,-0.18481445,-0.9500122,0.35150146,-4.8125,-0.890625,-2.015625
1695730199149,-0.21459961,-0.97906494,0.35394287,3.328125,5.15625,-1.5625
1695730199224,-0.16137695,-0.9561157,0.35906982,-3.984375,1.234375,0.8125
1695730199240,-0.16186523,-0.925354,0.33953857,-5.359375,2.46875,-1.34375
1695730199269,-0.15405273,-0.99346924,0.38616943,1.6875,4.21875,1.484375
1695730199314,-0.1706543,-0.973938,0.40008545,2.78125,-0.625,1.5625
1695730199374,-0.25,-0.88848877,0.28997803,-2.890625,1.40625,-2.484375
1695730199389,-0.19067383,-0.9673462,0.3703003,8.34375,1.890625,1.28125
1695730199434,-0.13012695,-0.99176025,0.36663818,-2.578125,1.546875,0.421875
1695730199479,-0.16674805,-0.9619751,0.3348999,-0.5,1.75,1.71875
1695730199509,-0.17700195,-0.9578247,0.3529663,1.796875,1.921875,3.0
1695730199557,-0.19482422,-0.9360962,0.32855225,0.3125,-0.78125,0.875
1695730199586,-0.21777344,-0.9402466,0.33294678,0.15625,3.890625,0.609375
1695730199630,-0.16870117,-1.0339966,0.41204834,0.9375,0.796875,3.921875
1695730199674,-0.16699219,-0.96343994,0.3505249,-7.21875,0.828125,-2.953125
1695730199706,-0.20605469,-0.93707275,0.3307495,2.6875,-0.109375,-2.09375
1695730199750,-0.17578125,-0.9678345,0.34954834,-1.03125,-0.140625,1.578125
1695730199779,-0.17602539,-0.97979736,0.37420654,-3.90625,0.625,-1.140625
1695730199823,-0.16308594,-0.97076416,0.36029053,-0.375,-1.265625,-1.5625
1695730199869,-0.16748047,-0.9302368,0.3390503,-5.109375,-3.9375,-1.078125
1695730199899,-0.21289062,-0.96221924,0.36151123,-2.59375,1.578125,-0.71875
1695730199959,-0.17919922,-0.9981079,0.3920288,-1.65625,-3.609375,-0.65625
1695730199989,-0.2253418,-0.8989868,0.40570068,-6.640625,-4.078125,-4.71875
1695730200020,-0.2770996,-0.9221802,0.34197998,-14.375,-4.15625,-6.296875
1695730200066,-0.07128906,-1.0979614,0.47113037,14.765625,10.5,-1.328125
1695730200093,-0.037353516,-1.0144653,0.44232178,19.53125,16.515625,4.375
1695730200154,-0.3696289,-0.6968384,0.19403076,5.46875,1.484375,4.90625
1695730200183,-0.25390625,-0.86065674,0.20965576,9.0625,-8.96875,0.875
1695730200218,-0.09716797,-1.1758423,0.46746826,17.015625,-12.4375,7.75
1695730200259,-0.15356445,-0.98809814,0.30462646,-12.265625,1.5,4.140625
1695730200305,-0.21899414,-0.8335571,0.22528076,4.921875,-0.796875,4.203125
1695730200334,-0.19604492,-0.97076416,0.3493042,1.015625,-6.40625,3.59375
1695730200380,-0.09667969,-1.0752563,0.35662842,-4.5,7.0,-3.28125
1695730200409,-0.13427734,-1.0025024,0.3258667,5.984375,0.3125,-0.4375
1695730200454,-0.23364258,-0.9158325,0.26239014,-0.578125,0.859375,-1.3125
1695730200499,-0.1640625,-0.93829346,0.27801514,-2.328125,3.203125,-1.15625
1695730200530,-0.099609375,-1.0457153,0.35980225,2.96875,2.40625,-5.46875
1695730200588,-0.17553711,-1.008606,0.3217163,2.015625,-1.28125,-2.265625
1695730200619,-0.20288086,-0.9121704,0.23944092,-2.0625,0.0625,0.765625
1695730200666,-0.1665039,-0.95440674,0.30218506,2.578125,-1.125,-0.015625
1695730200696,-0.18774414,-1.0249634,0.33416748,0.71875,0.28125,-0.734375
1695730200723,-0.15942383,-0.9873657,0.28753662,-0.921875,0.984375,3.078125
1695730200770,-0.19824219,-0.9319458,0.31292725,2.71875,-0.046875,-1.21875
1695730200818,-0.27294922,-0.9060669,0.24041748,1.65625,-4.421875,-0.484375
1695730200846,-0.22558594,-1.0877075,0.29779053,-10.375,-0.28125,1.59375
1695730200889,0.025146484,-1.1155396,0.49700928,3.5,4.234375,3.234375
1695730200934,-0.16235352,-0.8430786,0.24554443,-9.75,1.140625,1.21875
1695730200980,-0.33447266,-0.7756958,0.15472412,2.765625,-0.796875,1.65625
1695730201009,-0.18530273,-1.0828247,0.3920288,13.0,-6.078125,1.828125
1695730201039,-0.12402344,-1.0984497,0.41448975,-11.421875,1.828125,-1.46875
1695730201084,-0.16845703,-0.9036255,0.23968506,-5.4375,2.328125,-0.78125
1695730201130,-0.1640625,-0.91070557,0.29632568,3.78125,1.234375,1.921875
1695730201176,-0.17700195,-0.98101807,0.32537842,-6.90625,-0.734375,3.59375
1695730201206,-0.16113281,-1.0178833,0.32757568,-0.34375,4.390625,-2.734375
1695730201251,-0.16137695,-0.98101807,0.34857178,4.5,2.640625,-0.84375
1695730201279,-0.19995117,-0.8999634,0.27679443,-8.4375,2.109375,0.078125
1695730201324,-0.15063477,-1.0132446,0.34588623,0.46875,2.75,-0.84375
1695730201355,-0.17016602,-1.0137329,0.37493896,-1.21875,1.703125,-2.296875
1695730201398,-0.25830078,-0.90875244,0.25164795,-6.25,2.328125,-1.3125
1695730201444,-0.15307617,-0.97052,0.33319092,0.703125,4.375,-1.671875
1695730201477,-0.12939453,-0.99884033,0.39154053,1.3125,0.546875,-1.421875
1695730201519,-0.23828125,-0.9414673,0.28363037,-9.453125,3.140625,-2.171875
1695730201563,-0.17285156,-0.98321533,0.33831787,6.265625,5.125,-0.3125
1695730201595,-0.17993164,-0.95098877,0.36688232,-5.078125,-0.546875,-0.890625
1695730201638,-0.20410156,-0.9595337,0.3312378,-1.921875,1.015625,-1.90625
1695730201685,-0.20532227,-0.9727173,0.38031006,-3.375,-0.203125,-2.109375
1695730201715,-0.2368164,-0.91363525,0.31585693,-12.484375,1.46875,-3.28125
1695730201760,-0.10498047,-1.1030884,0.4706421,9.921875,15.09375,1.171875
1695730201789,-0.083740234,-0.9468384,0.34124756,4.453125,3.734375,0.625
1695730201834,-0.30297852,-0.75738525,0.22039795,7.84375,5.765625,-0.296875
1695730201878,-0.18334961,-0.9385376,0.16204834,19.1875,-7.0625,7.8125
1695730201908,-0.1081543,-1.1216431,0.4520874,13.8125,-3.703125,11.609375
1695730201954,-0.15136719,-0.99591064,0.29608154,-17.859375,-1.015625,1.296875
1695730202000,-0.19604492,-0.93292236,0.24871826,1.453125,-0.609375,3.734375
1695730202030,-0.10449219,-0.9883423,0.3632202,2.84375,5.375,4.046875
1695730202074,-0.19213867,-0.9758911,0.29315186,-4.9375,-4.46875,-1.203125
1695730202104,-0.18115234,-0.98443604,0.28240967,5.296875,-0.046875,-2.75
1695730202164,-0.15966797,-0.9819946,0.3180542,-0.609375,-3.5,1.140625
1695730202194,-0.16186523,-0.98516846,0.29852295,-7.984375,0.96875,-2.78125
1695730202225,-0.12036133,-1.0027466,0.30462646,4.75,-1.21875,-3.359375
1695730202269,-0.19433594,-0.97125244,0.276062,-6.421875,-1.359375,-0.875
1695730202345,-0.18041992,-0.9451294,0.26727295,4.9375,-1.234375,0.453125
1695730202348,-0.15527344,-0.99298096,0.3234253,-1.875,-2.390625,-2.0625
1695730202389,-0.19482422,-0.98931885,0.30438232,-6.5,-0.109375,-2.265625
1695730202419,-0.17529297,-0.9758911,0.31854248,0.078125,4.390625,0.125
1695730202466,-0.18286133,-0.9429321,0.31341553,-0.859375,0.46875,0.546875
1695730202508,-0.21362305,-0.9624634,0.2897339,-1.671875,-0.5,-3.03125
1695730202538,-0.1862793,-0.991272,0.33953857,1.625,1.234375,0.265625
1695730202584,-0.16357422,-1.0186157,0.32781982,-11.40625,-2.609375,1.40625
1695730202660,-0.057861328,-1.0244751,0.42401123,1.546875,7.90625,2.34375
1695730202663,-0.17285156,-0.90509033,0.33270264,0.828125,2.296875,3.703125
1695730202704,-0.31103516,-0.8303833,0.17108154,-2.34375,4.671875,0.109375
1695730202735,-0.14990234,-1.0020142,0.34710693,17.546875,-0.96875,1.703125
1695730202778,-0.05126953,-1.0859985,0.43743896,-5.28125,-1.90625,-0.984375
1695730202839,-0.18554688,-0.9534302,0.2723999,-6.8125,5.21875,-0.59375
1695730202855,-0.2019043,-0.90753174,0.2814331,4.015625,1.15625,2.1875
1695730202899,-0.1628418,-0.9824829,0.3505249,-6.25,-2.671875,-1.328125
1695730202945,-0.14331055,-1.0120239,0.33172607,-7.328125,3.453125,-1.984375
1695730202974,-0.14697266,-0.9751587,0.34417725,1.328125,2.234375,0.953125
1695730203019,-0.21069336,-0.9212036,0.291687,-7.09375,0.15625,-1.359375
1695730203070,-0.14282227,-0.9741821,0.3427124,-1.1875,2.765625,-0.59375
1695730203097,-0.16186523,-0.98443604,0.36761475,-3.140625,0.828125,-1.25
1695730203140,-0.24023438,-0.9373169,0.32122803,-1.171875,0.765625,-1.640625
1695730203169,-0.18554688,-0.9890747,0.33270264,-5.953125,3.234375,-2.0
1695730203216,-0.1616211,-0.9561157,0.3678589,-4.078125,0.6875,-1.984375
1695730203260,-0.20385742,-0.9697876,0.324646,-5.65625,5.53125,-3.46875
1695730203288,-0.18017578,-0.95562744,0.37908936,0.0,2.921875,0.203125
1695730203335,-0.19628906,-0.9273071,0.34173584,-6.921875,1.15625,-2.421875
1695730203363,-0.19799805,-0.96466064,0.37054443,2.5,1.890625,-1.734375
1695730203410,-0.20703125,-0.9507446,0.35003662,-4.609375,0.453125,-2.203125
1695730203457,-0.19482422,-0.97198486,0.37445068,1.234375,1.03125,-2.046875
1695730203484,-0.099121094,-1.0476685,0.4430542,0.921875,3.359375,2.859375
1695730203530,-0.119140625,-0.8897095,0.36932373,-3.328125,-0.0625,2.890625
1695730203576,-0.25854492,-0.8477173,0.30267334,1.15625,1.875,-1.96875
1695730203604,-0.2199707,-0.9734497,0.37493896,9.859375,-0.8125,2.4375
1695730203649,-0.15527344,-1.0042114,0.38861084,-6.625,-0.5,-1.203125
1695730203679,-0.14941406,-0.9812622,0.38153076,-0.953125,1.921875,-1.3125
1695730203724,-0.15454102,-0.9246216,0.40325928,-1.5625,-2.953125,1.8125
1695730203769,-0.21777344,-0.9024048,0.34075928,-5.953125,-1.65625,-0.09375
1695730203799,-0.1784668,-1.0122681,0.40789795,0.09375,0.078125,-0.125
1695730203844,-0.1875,-0.95684814,0.4130249,-0.375,-1.609375,-0.015625
1695730203889,-0.22583008,-0.9224243,0.36883545,1.359375,-1.640625,-2.59375
1695730203920,-0.14404297,-0.9746704,0.37982178,5.15625,3.265625,-0.578125
1695730203965,-0.15917969,-0.97076416,0.42840576,9.984375,5.78125,-0.609375
1695730203996,-0.26245117,-0.95196533,0.34124756,9.453125,2.984375,-3.15625
1695730204054,-0.203125,-0.9741821,0.3222046,2.40625,2.015625,3.53125
1695730204099,-0.1706543,-0.9924927,0.33587646,2.53125,0.84375,-1.96875
1695730204114,-0.19555664,-0.95196533,0.36810303,0.21875,2.421875,-4.25
1695730204175,-0.22802734,-0.9714966,0.2741089,0.359375,0.921875,4.265625
1695730204204,-0.19165039,-0.9883423,0.2975464,-1.03125,-1.046875,-1.0
1695730204234,-0.17163086,-0.9360962,0.3312378,1.96875,-1.5,0.90625
1695730204279,-0.17749023,-0.9187622,0.25750732,-1.125,0.125,1.4375
1695730204309,-0.22583008,-0.9741821,0.30316162,0.28125,-0.890625,-1.28125
1695730204354,-0.1809082,-0.9573364,0.34539795,0.625,-3.28125,4.03125
1695730204399,-0.18896484,-1.0100708,0.3619995,3.09375,-1.875,4.359375
1695730204445,-0.19140625,-0.9990845,0.37322998,3.515625,3.859375,1.734375
1695730204473,-0.15307617,-0.88531494,0.3114624,2.0625,4.21875,1.671875
1695730204518,-0.22338867,-0.93096924,0.24163818,-2.515625,1.375,0.640625
1695730204548,-0.19165039,-1.0278931,0.3163452,11.34375,-3.625,2.75
1695730204594,-0.14038086,-1.0117798,0.4022827,-3.140625,-2.171875,-0.734375
1695730204640,-0.21582031,-0.9319458,0.29656982,-8.140625,2.265625,-2.703125
1695730204669,-0.18798828,-0.93927,0.25091553,4.609375,-3.21875,-0.65625
1695730204714,-0.1652832,-0.99542236,0.34246826,1.90625,-8.5,0.140625
1695730204751,-0.18359375,-0.97540283,0.31463623,-0.5625,-3.21875,-2.15625
