,timestamp,accel_x,accel_y,accel_z,gyro_x,gyro_y,gyro_z
0,1695729828063,-0.3762207,-0.8953247,0.42108154,2.0,3.25,-1.421875
1,1695729828094,-0.35839844,-0.90704346,0.4257202,2.703125,1.296875,-1.5
2,1695729828136,-0.3659668,-0.8987427,0.40985107,0.078125,3.71875,-0.328125
3,1695729828167,-0.36376953,-0.89849854,0.42230225,3.921875,5.3125,-2.09375
4,1695729828212,-0.36987305,-0.87823486,0.41497803,2.5625,5.390625,-2.546875
5,1695729828257,-0.36889648,-0.9133911,0.40203857,2.75,3.546875,-0.78125
6,1695729828287,-0.37670898,-0.8858032,0.40594482,2.25,3.640625,1.078125
7,1695729828331,-0.3828125,-0.8945923,0.40472412,3.515625,3.328125,-0.21875
8,1695729828379,-0.3684082,-0.9067993,0.40179443,0.984375,2.9375,-0.25
9,1695729828407,-0.34228516,-0.9077759,0.38885498,1.453125,1.875,0.28125
10,1695729828451,-0.35107422,-0.88946533,0.38250732,1.328125,-0.765625,0.421875
11,1695729828528,-0.37524414,-0.9143677,0.40008545,0.40625,-0.03125,0.796875
12,1695729828530,-0.3635254,-0.9121704,0.38323975,-0.390625,-0.640625,-0.625
13,1695729828572,-0.36865234,-0.90411377,0.3908081,2.0,-0.171875,-1.296875
14,1695729828603,-0.3696289,-0.9182739,0.3739624,2.65625,7.9375,-3.234375
15,1695729828649,-0.34716797,-0.91851807,0.36053467,14.921875,11.6875,-2.609375
16,1695729828692,-0.41015625,-0.8731079,0.4100952,25.0,9.359375,2.25
17,1695729828723,-0.4099121,-0.9234009,0.36151123,12.84375,7.53125,4.75
18,1695729828767,-0.36328125,-0.9036255,0.29901123,15.71875,6.609375,5.78125
19,1695729828797,-0.31811523,-0.9036255,0.32147217,10.3125,7.96875,4.390625
20,1695729828842,-0.31640625,-0.9102173,0.291687,8.71875,-4.109375,6.53125
21,1695729828887,-0.26367188,-0.895813,0.27752686,0.640625,-5.359375,4.203125
22,1695729828918,-0.25683594,-0.8479614,0.22332764,-17.359375,-29.734375,7.609375
23,1695729828963,-0.4025879,-0.99468994,0.34783936,-12.453125,-21.28125,0.328125
24,1695729829010,-0.30810547,-1.1087036,0.32489014,-15.75,-0.21875,-10.09375
25,1695729829039,-0.37329102,-0.9505005,0.31951904,-8.28125,2.390625,-4.625
26,1695729829084,-0.36157227,-0.83917236,0.2987671,-12.734375,8.6875,-11.453125
27,1695729829114,-0.32836914,-0.8765259,0.4003296,-8.71875,-0.5625,-9.71875
28,1695729829159,-0.4074707,-0.9495239,0.4232788,-5.515625,6.953125,-5.4375
29,1695729829204,-0.3894043,-0.8887329,0.38128662,-0.84375,15.140625,-5.4375
30,1695729829234,-0.4099121,-0.92266846,0.4352417,9.609375,20.328125,-5.765625
31,1695729829281,-0.47631836,-0.95025635,0.3847046,19.296875,14.828125,1.265625
32,1695729829322,-0.42700195,-0.8518677,0.32513428,13.859375,14.28125,1.140625
33,1695729829352,-0.3154297,-0.91363525,0.31219482,17.9375,10.25,0.109375
34,1695729829399,-0.30639648,-0.9378052,0.33758545,20.84375,9.8125,3.84375
35,1695729829428,-0.31420898,-0.9043579,0.2675171,10.078125,1.6875,6.34375
36,1695729829475,-0.3059082,-0.9314575,0.2838745,9.265625,-1.671875,0.671875
37,1695729829519,-0.3005371,-0.9146118,0.27923584,-1.671875,-7.828125,3.921875
38,1695729829548,-0.34228516,-0.8633423,0.2333374,-3.671875,-23.921875,8.0625
39,1695729829593,-0.39331055,-0.91192627,0.2453003,-5.921875,-46.109375,8.5625
40,1695729829638,-0.34985352,-1.0510864,0.30438232,-20.125,-12.078125,-4.65625
41,1695729829669,-0.27563477,-1.0432739,0.3756714,-12.203125,2.140625,-10.984375
42,1695729829713,-0.45629883,-0.89849854,0.28118896,-5.46875,-2.3125,-2.8125
43,1695729829744,-0.39379883,-0.8484497,0.27020264,-9.859375,5.65625,-3.53125
44,1695729829789,-0.3618164,-0.9365845,0.32073975,-5.65625,1.46875,-0.453125
45,1695729829833,-0.39892578,-0.9446411,0.3685913,1.1875,4.59375,-4.875
46,1695729829863,-0.4008789,-0.9360962,0.37542725,-2.9375,12.859375,-4.921875
47,1695729829923,-0.43725586,-0.92633057,0.33563232,6.34375,20.890625,0.921875
48,1695729829952,-0.39282227,-0.93585205,0.37615967,19.390625,18.890625,-1.015625
49,1695729829983,-0.39697266,-0.9570923,0.31878662,9.03125,12.78125,3.09375
50,1695729830029,-0.3581543,-0.8809204,0.27972412,3.375,5.96875,4.03125
51,1695729830057,-0.28173828,-0.93096924,0.29730225,6.671875,4.234375,2.984375
52,1695729830105,-0.3017578,-0.9656372,0.28240967,6.125,2.40625,5.984375
53,1695729830147,-0.33422852,-0.92022705,0.27166748,4.375,-2.125,3.609375
54,1695729830177,-0.34179688,-0.8677368,0.25482178,5.140625,-7.671875,4.21875
55,1695729830223,-0.31420898,-0.90167236,0.30218506,1.015625,-26.734375,11.3125
56,1695729830267,-0.42016602,-0.9421997,0.2670288,-19.328125,-33.828125,4.328125
57,1695729830298,-0.31030273,-1.036438,0.30706787,-19.234375,-3.515625,-13.0625
58,1695729830344,-0.3371582,-0.9866333,0.33514404,-13.8125,7.78125,-9.5
59,1695729830374,-0.37231445,-0.87213135,0.29608154,-11.84375,4.453125,-6.09375
60,1695729830418,-0.37426758,-0.89141846,0.33953857,-7.046875,1.765625,-5.390625
61,1695729830465,-0.38134766,-0.95440674,0.37445068,-6.640625,2.734375,-2.75
62,1695729830494,-0.39282227,-0.88287354,0.37957764,2.296875,11.96875,-4.71875
63,1695729830538,-0.4597168,-0.9168091,0.3866577,5.421875,30.140625,-4.75
64,1695729830585,-0.42089844,-0.98931885,0.36029053,14.78125,36.78125,-0.140625
65,1695729830628,-0.3642578,-0.8875122,0.36053467,22.671875,20.109375,5.71875
66,1695729830675,-0.30078125,-0.8928833,0.3234253,12.0,3.671875,4.28125
67,1695729830703,-0.2998047,-0.91607666,0.28070068,5.015625,0.9375,2.796875
68,1695729830735,-0.25463867,-0.9373169,0.3287964,10.453125,-4.203125,4.875
69,1695729830779,-0.31396484,-0.9089966,0.26898193,4.265625,-10.640625,5.046875
70,1695729830808,-0.37475586,-0.92022705,0.2453003,-6.703125,-17.546875,3.171875
71,1695729830857,-0.3112793,-0.87628174,0.2506714,-13.890625,-35.875,3.9375
72,1695729830901,-0.3227539,-0.9944458,0.34906006,-11.015625,-25.1875,5.375
73,1695729830928,-0.35375977,-0.9961548,0.2789917,-24.78125,-7.90625,-5.25
74,1695729830974,-0.35888672,-0.93096924,0.29412842,-11.203125,0.5625,-7.59375
75,1695729831004,-0.38867188,-0.8933716,0.3554077,-11.3125,2.078125,-0.046875
76,1695729831049,-0.36816406,-0.92681885,0.37738037,-3.796875,4.640625,-2.6875
77,1695729831094,-0.3618164,-0.9246216,0.3768921,-2.234375,3.703125,-1.453125
78,1695729831123,-0.35791016,-0.8989868,0.3463745,-0.46875,11.921875,-0.84375
79,1695729831170,-0.37524414,-0.9216919,0.3932495,-4.71875,15.046875,-4.640625
80,1695729831216,-0.3869629,-0.9417114,0.39398193,4.359375,18.640625,-3.609375
81,1695729831244,-0.3881836,-0.93292236,0.44525146,21.078125,24.859375,0.078125
82,1695729831289,-0.34692383,-0.91485596,0.3168335,9.453125,12.234375,2.84375
83,1695729831319,-0.29833984,-0.9175415,0.33465576,16.421875,14.234375,2.953125
84,1695729831364,-0.28930664,-0.9011841,0.29315186,6.984375,4.65625,4.546875
85,1695729831410,-0.28930664,-0.92852783,0.28826904,7.1875,-9.25,4.78125
86,1695729831438,-0.28222656,-0.9561157,0.30999756,1.109375,-7.4375,0.71875
87,1695729831486,-0.31201172,-0.8977661,0.27850342,4.453125,-9.515625,7.09375
88,1695729831529,-0.31469727,-0.8826294,0.32000732,-1.03125,-19.90625,8.703125
89,1695729831559,-0.31762695,-0.9487915,0.23187256,-27.765625,-27.09375,-2.15625
90,1695729831607,-0.3251953,-1.0525513,0.43206787,-6.265625,-7.875,-8.5625
91,1695729831648,-0.34594727,-0.9697876,0.354187,-15.328125,2.65625,-2.609375
92,1695729831678,-0.36914062,-0.8477173,0.26263428,-5.875,0.59375,-0.703125
93,1695729831726,-0.34570312,-0.913147,0.38641357,-2.9375,-0.4375,-3.890625
94,1695729831756,-0.3635254,-0.97076416,0.3859253,-4.453125,1.125,-0.671875
95,1695729831798,-0.34277344,-0.9104614,0.34539795,-2.859375,5.203125,-0.96875
96,1695729831847,-0.34277344,-0.9163208,0.37054443,1.234375,9.65625,-0.5
97,1695729831878,-0.38745117,-0.8948364,0.40374756,7.203125,10.328125,0.515625
98,1695729831933,-0.4111328,-0.9824829,0.42034912,4.546875,14.46875,8.4375
99,1695729831963,-0.29907227,-0.9343872,0.2687378,2.953125,16.015625,4.640625
100,1695729831994,-0.23242188,-0.9043579,0.3336792,13.34375,10.453125,-0.703125
101,1695729832038,-0.22705078,-0.9212036,0.35662842,10.890625,2.140625,2.71875
102,1695729832068,-0.30541992,-0.96343994,0.31170654,4.984375,-6.3125,6.59375
103,1695729832113,-0.3269043,-0.95758057,0.2994995,1.90625,-5.890625,0.390625
104,1695729832159,-0.30493164,-0.9434204,0.29241943,4.78125,-6.765625,2.875
105,1695729832188,-0.26757812,-0.9065552,0.29656982,-3.96875,-6.90625,1.0
106,1695729832234,-0.3010254,-0.8960571,0.2711792,-23.765625,-18.453125,-0.140625
107,1695729832279,-0.32348633,-0.98638916,0.38031006,-19.625,-5.09375,-7.359375
108,1695729832309,-0.37280273,-1.0142212,0.41912842,-16.796875,8.59375,-3.671875
109,1695729832355,-0.3557129,-0.8826294,0.37908936,-15.40625,12.0625,-1.015625
110,1695729832384,-0.3095703,-0.85528564,0.40863037,-1.453125,3.375,0.40625
111,1695729832429,-0.34448242,-0.923645,0.4406128,-4.3125,1.9375,0.984375
112,1695729832474,-0.32495117,-0.93292236,0.402771,2.34375,0.359375,-0.921875
113,1695729832504,-0.31958008,-0.9060669,0.40325928,5.015625,4.84375,-2.59375
114,1695729832549,-0.32006836,-0.9480591,0.4244995,4.328125,12.8125,-4.703125
115,1695729832625,-0.35351562,-0.93341064,0.3554077,0.453125,11.765625,-4.6875
116,1695729832627,-0.29077148,-0.94366455,0.42474365,20.203125,19.296875,-2.390625
117,1695729832669,-0.3190918,-0.9077759,0.36810303,7.453125,9.84375,4.6875
118,1695729832698,-0.3083496,-0.8760376,0.37664795,4.1875,5.296875,0.265625
119,1695729832744,-0.25683594,-0.9541626,0.3685913,5.71875,-0.890625,0.40625
120,1695729832789,-0.29614258,-0.9331665,0.2868042,-5.828125,-5.796875,3.96875
121,1695729832819,-0.29541016,-0.9053345,0.3451538,3.734375,-7.5625,1.75
122,1695729832879,-0.30908203,-0.9414673,0.39178467,1.84375,-17.609375,4.65625
123,1695729832908,-0.2927246,-0.8870239,0.3295288,-6.15625,-21.09375,8.65625
124,1695729832939,-0.3137207,-0.91412354,0.3156128,-19.03125,-17.78125,-1.046875
125,1695729832984,-0.2919922,-1.0127563,0.45281982,-5.546875,-6.40625,-6.75
126,1695729833013,-0.3618164,-0.96051025,0.3834839,-12.09375,0.453125,-1.96875
127,1695729833061,-0.35839844,-0.88531494,0.39764404,-1.203125,-0.890625,-3.9375
128,1695729833103,-0.33984375,-0.8826294,0.38104248,-5.265625,-2.234375,-3.71875
129,1695729833132,-0.33325195,-0.9121704,0.38763428,-1.03125,0.78125,-0.546875
130,1695729833178,-0.35791016,-0.9260864,0.41937256,-1.84375,7.640625,-2.3125
131,1695729833224,-0.37597656,-0.9229126,0.3649292,0.671875,14.6875,-6.015625
132,1695729833255,-0.32910156,-0.9429321,0.41400146,13.75,28.890625,-8.359375
133,1695729833301,-0.32128906,-0.928772,0.4118042,16.5625,28.3125,-2.5
134,1695729833329,-0.3383789,-0.86260986,0.36029053,16.3125,13.875,2.078125
135,1695729833374,-0.30981445,-0.8948364,0.3600464,12.921875,0.25,2.640625
136,1695729833419,-0.3088379,-0.92071533,0.35003662,1.078125,-12.0625,2.578125
137,1695729833448,-0.27148438,-0.9368286,0.3414917,-1.078125,-12.90625,3.109375
138,1695729833492,-0.33569336,-0.8928833,0.32318115,4.734375,-25.640625,9.296875
139,1695729833538,-0.36767578,-0.928772,0.33050537,-12.34375,-28.484375,6.359375
140,1695729833569,-0.28125,-0.94610596,0.34100342,-22.125,-6.8125,-2.40625
141,1695729833614,-0.27246094,-1.0220337,0.3571167,-12.578125,5.84375,-7.65625
142,1695729833643,-0.38598633,-0.9072876,0.39154053,-2.328125,-2.90625,-1.4375
143,1695729833690,-0.3491211,-0.85772705,0.36566162,-5.84375,0.34375,-1.4375
144,1695729833734,-0.3544922,-0.9241333,0.3998413,-1.75,-0.578125,-2.703125
145,1695729833767,-0.37304688,-0.92559814,0.41497803,2.8125,2.21875,-1.0625
146,1695729833808,-0.35913086,-0.90582275,0.3781128,-1.84375,13.328125,-2.703125
147,1695729833854,-0.36645508,-0.9024048,0.4076538,9.609375,20.171875,-5.078125
148,1695729833884,-0.3618164,-0.95513916,0.40130615,11.703125,21.40625,-1.15625
149,1695729833928,-0.33129883,-0.90948486,0.277771,1.734375,8.015625,2.40625
150,1695729833959,-0.28442383,-0.9192505,0.37591553,17.796875,16.375,-1.421875
151,1695729834005,-0.31225586,-0.9302368,0.40960693,9.765625,2.5625,0.046875
152,1695729834049,-0.36108398,-0.91412354,0.29388428,3.296875,-3.34375,5.015625
153,1695729834079,-0.32885742,-0.93756104,0.32904053,1.1875,-0.84375,-0.765625
154,1695729834125,-0.28637695,-0.93878174,0.3373413,5.15625,-5.5625,0.515625
155,1695729834168,-0.3330078,-0.8965454,0.26605225,2.984375,-15.703125,5.21875
156,1695729834199,-0.33666992,-0.9338989,0.32977295,8.21875,-9.078125,1.375
157,1695729834244,-0.31079102,-0.942688,0.33148193,-2.609375,-16.28125,10.0
158,1695729834274,-0.33325195,-0.9258423,0.2741089,-22.65625,-8.46875,1.296875
159,1695729834319,-0.28295898,-0.9690552,0.3361206,-16.40625,7.78125,-7.734375
160,1695729834364,-0.37426758,-0.98150635,0.40618896,-5.53125,1.828125,-1.09375
161,1695729834395,-0.31176758,-0.8779907,0.32684326,-10.328125,3.6875,-2.0
162,1695729834439,-0.32983398,-0.9092407,0.36297607,-3.96875,0.1875,-5.046875
163,1695729834484,-0.36035156,-0.91290283,0.39715576,-4.46875,1.3125,-0.828125
164,1695729834514,-0.36743164,-0.9053345,0.44866943,-4.90625,9.875,-3.59375
165,1695729834559,-0.39868164,-0.9175415,0.34832764,-7.171875,7.5,-1.546875
166,1695729834590,-0.3083496,-0.96710205,0.40008545,16.765625,16.984375,-1.671875
167,1695729834635,-0.25683594,-0.91729736,0.35272217,12.75,10.625,0.796875
168,1695729834679,-0.36694336,-0.89849854,0.33319092,11.796875,2.125,2.75
169,1695729834709,-0.31933594,-0.96954346,0.3366089,-0.125,1.421875,-0.359375
170,1695729834753,-0.3005371,-0.9048462,0.28070068,6.78125,-3.3125,3.15625
171,1695729834798,-0.390625,-0.94195557,0.2880249,30.90625,-5.046875,3.453125
172,1695729834829,-0.22949219,-0.9883423,0.34588623,17.859375,10.578125,2.140625
173,1695729834875,-0.30297852,-0.861145,0.2567749,7.34375,-8.015625,12.15625
174,1695729834903,-0.36254883,-0.89849854,0.31878662,-17.8125,-23.015625,5.609375
175,1695729834948,-0.28759766,-0.98883057,0.2855835,-26.578125,-11.0625,-6.28125
176,1695729834994,-0.2709961,-1.0081177,0.32855225,-12.0,0.453125,-4.5
177,1695729835025,-0.3503418,-0.91900635,0.3204956,-1.6875,0.328125,-2.984375
178,1695729835069,-0.33032227,-0.92071533,0.32733154,-10.59375,2.484375,-1.4375
179,1695729835112,-0.3322754,-0.93878174,0.34857178,2.234375,-0.28125,-3.15625
180,1695729835143,-0.34887695,-0.9385376,0.3788452,9.796875,3.28125,-2.765625
181,1695729835188,-0.35498047,-0.91412354,0.28045654,-7.0,-0.28125,-0.796875
182,1695729835236,-0.36938477,-0.9229126,0.3661499,11.796875,17.015625,-3.921875
183,1695729835264,-0.3244629,-0.9990845,0.40130615,-3.140625,13.953125,-3.171875
184,1695729835309,-0.34057617,-0.89849854,0.24139404,2.265625,12.6875,-2.453125
185,1695729835338,-0.2956543,-0.9517212,0.36834717,12.65625,16.078125,4.78125
186,1695729835384,-0.2993164,-0.9006958,0.307312,-0.734375,-0.453125,5.46875
187,1695729835430,-0.3815918,-0.93951416,0.25164795,10.96875,-6.671875,3.03125
188,1695729835458,-0.25927734,-0.95318604,0.33392334,1.5,-3.890625,2.484375
189,1695729835504,-0.2932129,-0.90875244,0.3007202,12.875,-19.921875,13.546875
190,1695729835548,-0.33520508,-0.93951416,0.28363037,-7.28125,-26.859375,8.703125
191,1695729835578,-0.31762695,-0.9290161,0.24945068,-25.0625,-7.578125,-4.71875
192,1695729835623,-0.3100586,-1.0247192,0.3829956,-8.4375,5.6875,-6.703125
193,1695729835652,-0.33081055,-0.9627075,0.3209839,-6.078125,9.265625,-8.28125
194,1695729835698,-0.29956055,-0.8779907,0.31048584,-0.65625,1.65625,-3.34375
195,1695729835744,-0.3166504,-0.9265747,0.34124756,-7.015625,1.484375,-1.046875
196,1695729835773,-0.3581543,-0.94000244,0.3571167,-4.0625,0.5,-4.34375
197,1695729835819,-0.36010742,-0.9290161,0.37786865,-8.859375,2.78125,-3.4375
198,1695729835864,-0.31762695,-0.9175415,0.33148193,-10.6875,4.796875,-2.484375
199,1695729835894,-0.34033203,-0.9417114,0.3768921,-0.21875,11.40625,-6.078125
200,1695729835938,-0.3540039,-1.0127563,0.4352417,12.96875,17.015625,-0.71875
201,1695729836014,-0.39379883,-0.87506104,0.28118896,11.921875,21.65625,2.421875
202,1695729836018,-0.26538086,-0.83013916,0.3612671,20.390625,6.4375,-0.296875
203,1695729836058,-0.28027344,-0.9585571,0.35809326,8.734375,-0.953125,-0.453125
204,1695729836089,-0.33276367,-0.95635986,0.32440186,-3.453125,-3.484375,1.203125
205,1695729836148,-0.3178711,-0.9006958,0.32073975,3.578125,-6.21875,1.390625
206,1695729836178,-0.30859375,-0.92388916,0.30755615,1.890625,-17.671875,2.609375
207,1695729836208,-0.31933594,-0.9192505,0.3493042,-1.953125,-20.71875,6.359375
208,1695729836254,-0.36767578,-0.9500122,0.2850952,-13.265625,-18.4375,5.765625
209,1695729836286,-0.32763672,-0.9783325,0.32147217,-13.046875,3.25,-4.015625
210,1695729836328,-0.39746094,-0.93463135,0.36102295,-1.0,-0.71875,-1.0
211,1695729836374,-0.31396484,-0.9365845,0.35198975,-8.796875,3.421875,-4.09375
212,1695729836403,-0.35058594,-0.9402466,0.35662842,-3.234375,-0.359375,-0.46875
213,1695729836449,-0.3503418,-0.89312744,0.3456421,-5.8125,4.296875,-1.828125
214,1695729836492,-0.36035156,-0.9182739,0.3925171,-6.484375,5.875,-4.671875
215,1695729836522,-0.3713379,-0.9312134,0.36688232,-11.21875,7.75,-3.390625
216,1695729836568,-0.34033203,-0.9338989,0.39178467,0.15625,9.65625,-5.59375
217,1695729836598,-0.34204102,-0.9636841,0.41278076,10.71875,16.375,-3.140625
218,1695729836644,-0.33398438,-0.8687134,0.33026123,2.734375,7.359375,3.046875
219,1695729836689,-0.3474121,-0.8948364,0.34954834,12.875,10.015625,-0.46875
220,1695729836719,-0.29760742,-0.9673462,0.4454956,13.875,10.21875,-0.34375
221,1695729836764,-0.3232422,-0.89190674,0.30194092,1.359375,-1.921875,5.296875
222,1695729836809,-0.35498047,-0.92926025,0.32147217,6.75,-2.328125,0.421875
223,1695729836838,-0.28442383,-0.9234009,0.3312378,1.5625,-10.328125,1.609375
224,1695729836887,-0.375,-0.9036255,0.37469482,-1.515625,-21.25,9.40625
225,1695729836913,-0.37402344,-0.9067993,0.277771,-20.25,-24.34375,1.828125
226,1695729836959,-0.29541016,-0.97369385,0.3944702,-11.421875,3.8125,-5.203125
227,1695729837003,-0.32861328,-0.9404907,0.34051514,-14.921875,3.65625,-1.234375
228,1695729837034,-0.34594727,-0.91607666,0.3866577,-3.40625,3.140625,-2.46875
229,1695729837078,-0.3461914,-0.9258423,0.41522217,-2.59375,1.109375,-3.484375
230,1695729837124,-0.35351562,-0.89849854,0.3866577,-7.453125,6.203125,-5.234375
231,1695729837155,-0.33544922,-0.85601807,0.37127686,0.828125,2.78125,-4.5625
232,1695729837199,-0.36938477,-0.92022705,0.39666748,0.21875,3.265625,0.859375
233,1695729837228,-0.35205078,-0.9121704,0.3895874,4.421875,2.9375,1.46875
234,1695729837275,-0.36572266,-0.92974854,0.4310913,5.734375,0.71875,4.140625
235,1695729837318,-0.3010254,-0.88775635,0.4249878,3.421875,7.046875,-2.234375
236,1695729837348,-0.38012695,-0.9536743,0.38616943,8.078125,8.015625,0.59375
237,1695729837393,-0.33691406,-0.9248657,0.3451538,7.484375,6.859375,1.5
238,1695729837438,-0.32666016,-0.8533325,0.28460693,3.109375,-10.859375,4.25
239,1695729837468,-0.3527832,-0.9385376,0.35687256,3.140625,-13.125,1.921875
240,1695729837516,-0.33276367,-0.94195557,0.3624878,-3.53125,-11.6875,3.15625
241,1695729837543,-0.34179688,-0.90460205,0.3703003,-8.625,-15.015625,5.78125
242,1695729837589,-0.3918457,-0.8760376,0.3336792,-17.640625,-21.03125,-0.515625
243,1695729837633,-0.32055664,-0.94903564,0.42230225,-11.921875,4.5625,-8.015625
244,1695729837663,-0.3486328,-0.9402466,0.35321045,-9.734375,2.4375,-1.1875
245,1695729837710,-0.3762207,-0.8726196,0.38983154,-3.171875,5.84375,-3.5
246,1695729837754,-0.3684082,-0.90045166,0.43865967,-4.03125,4.09375,-3.984375
247,1695729837783,-0.39892578,-0.88946533,0.39886475,-4.03125,4.59375,-1.609375
248,1695729837828,-0.38183594,-0.88067627,0.40325928,-0.609375,5.3125,-4.0625
249,1695729837858,-0.3623047,-0.88531494,0.4364624,2.234375,6.015625,0.09375
250,1695729837904,-0.37402344,-0.8994751,0.42034912,2.71875,3.96875,1.109375
251,1695729837948,-0.40283203,-0.90704346,0.40838623,3.890625,3.78125,2.6875
252,1695729837978,-0.34936523,-0.93048096,0.42279053,8.046875,10.71875,-0.421875
253,1695729838026,-0.31689453,-0.8960571,0.37347412,7.46875,10.8125,-2.578125
254,1695729838070,-0.34545898,-0.90582275,0.35980225,7.796875,8.890625,-0.921875
255,1695729838098,-0.35913086,-0.9307251,0.39422607,6.1875,10.375,0.140625
256,1695729838144,-0.34106445,-0.90631104,0.36346436,5.125,2.609375,1.078125
257,1695729838173,-0.33007812,-0.88775635,0.35247803,2.71875,-3.453125,-0.25
258,1695729838218,-0.32299805,-0.89630127,0.34661865,-0.890625,-9.703125,0.921875
259,1695729838262,-0.3491211,-0.9036255,0.29534912,8.90625,-22.8125,5.421875
260,1695729838292,-0.3618164,-0.9470825,0.45819092,-1.953125,-12.296875,8.546875
261,1695729838338,-0.38623047,-0.90411377,0.32781982,-18.328125,0.09375,0.359375
262,1695729838384,-0.36083984,-1.000061,0.3632202,-1.15625,6.78125,-10.0
263,1695729838414,-0.31567383,-0.895813,0.40789795,-5.34375,0.828125,-2.03125
264,1695729838458,-0.35791016,-0.8508911,0.371521,-7.453125,3.484375,-0.796875
265,1695729838488,-0.39282227,-0.9246216,0.387146,-10.171875,-0.265625,-5.96875
266,1695729838534,-0.38232422,-0.9011841,0.43695068,-2.0625,3.234375,-3.703125
267,1695729838578,-0.3881836,-0.8711548,0.37982178,-4.375,7.046875,0.359375
268,1695729838609,-0.35351562,-0.8987427,0.4467163,4.453125,14.078125,-4.0625
269,1695729838655,-0.37158203,-0.9221802,0.43743896,2.546875,4.984375,3.53125
270,1695729838699,-0.42944336,-0.93170166,0.37200928,4.8125,20.203125,-0.078125
271,1695729838728,-0.30517578,-0.8933716,0.43597412,9.875,10.984375,-1.3125
272,1695729838773,-0.31689453,-0.8406372,0.385437,5.828125,-8.546875,4.09375
273,1695729838812,-0.3852539,-0.9446411,0.3781128,1.1875,-3.859375,0.0
274,1695729838848,-0.35253906,-0.9470825,0.38226318,2.046875,-6.203125,2.578125
275,1695729838894,-0.34570312,-0.8694458,0.26507568,3.71875,-3.625,3.265625
276,1695729838924,-0.33251953,-0.9500122,0.42694092,26.421875,1.296875,-0.578125
277,1695729838969,-0.33935547,-0.9014282,0.40789795,8.90625,-22.078125,12.78125
278,1695729839014,-0.40966797,-0.8533325,0.27947998,-15.71875,-10.71875,14.609375
279,1695729839044,-0.2878418,-0.9692993,0.3546753,-4.46875,3.65625,-5.890625
280,1695729839088,-0.36889648,-1.0056763,0.38787842,0.4375,-4.3125,-5.5
281,1695729839135,-0.33764648,-0.8755493,0.34832764,-8.109375,4.703125,2.640625
282,1695729839163,-0.34228516,-0.9143677,0.3493042,-5.265625,1.703125,-2.59375
283,1695729839209,-0.35839844,-0.9421997,0.36297607,-6.46875,1.265625,-3.21875
284,1695729839239,-0.33740234,-0.897522,0.39837646,0.890625,2.34375,-0.171875
285,1695729839284,-0.3798828,-0.92559814,0.39031982,1.5,11.6875,-2.671875
286,1695729839329,-0.3720703,-0.8870239,0.3217163,-2.1875,11.9375,-5.265625
287,1695729839359,-0.2902832,-0.9859009,0.401062,22.625,20.59375,-2.4375
288,1695729839405,-0.32348633,-0.93048096,0.355896,12.6875,9.5625,4.515625
289,1695729839448,-0.41479492,-0.86846924,0.24041748,4.484375,-1.53125,4.328125
290,1695729839479,-0.27807617,-0.97198486,0.3583374,11.125,7.546875,-3.796875
291,1695729839528,-0.2783203,-0.9133911,0.31341553,7.3125,-7.75,4.5
292,1695729839555,-0.36767578,-0.9019165,0.23406982,6.625,-12.0625,4.921875
293,1695729839598,-0.3149414,-0.96099854,0.32659912,14.125,-17.90625,4.53125
294,1695729839643,-0.29541016,-0.928772,0.2489624,-8.65625,-24.328125,9.90625
295,1695729839674,-0.3544922,-0.9277954,0.24969482,-21.46875,-5.21875,-2.296875
296,1695729839719,-0.34204102,-1.0493774,0.39813232,-13.796875,3.015625,-9.171875
297,1695729839764,-0.35742188,-0.94610596,0.2880249,-8.375,1.390625,-1.40625
298,1695729839796,-0.30688477,-0.850647,0.29925537,-5.28125,1.203125,-3.4375
299,1695729839839,-0.34814453,-0.9314575,0.3554077,-3.09375,-1.0,-6.21875
300,1695729839868,-0.41503906,-0.960022,0.35076904,-2.671875,-0.203125,-0.671875
301,1695729839913,-0.36938477,-0.90045166,0.30511475,-3.140625,5.515625,-0.875
302,1695729839960,-0.3466797,-0.9307251,0.3624878,1.5,10.5,-4.953125
303,1695729839989,-0.36279297,-0.9859009,0.35028076,5.03125,15.984375,-0.046875
304,1695729840035,-0.32202148,-0.90753174,0.28070068,6.5,9.265625,3.5
305,1695729840108,-0.32055664,-0.9077759,0.31048584,11.703125,8.15625,0.078125
306,1695729840110,-0.33276367,-0.9397583,0.34881592,8.5,2.453125,-0.921875
307,1695729840157,-0.3701172,-0.92559814,0.29266357,5.015625,-4.359375,2.53125
308,1695729840184,-0.32226562,-0.92510986,0.28533936,0.453125,-1.875,-0.0625
309,1695729840229,-0.33032227,-0.91729736,0.2567749,-0.453125,-10.28125,-0.203125
310,1695729840273,-0.34179688,-0.9468384,0.30926514,2.640625,-11.90625,5.359375
311,1695729840304,-0.35205078,-0.9168091,0.28411865,-12.78125,-16.9375,8.109375
312,1695729840349,-0.24951172,-0.9651489,0.3451538,-14.140625,-6.8125,-19.828125
313,1695729840392,-0.37670898,-0.97076416,0.29852295,-4.1875,-2.375,-6.25
314,1695729840423,-0.49023438,-0.88360596,0.322937,1.015625,6.390625,3.5
315,1695729840468,-0.43676758,-0.87457275,0.28948975,-3.421875,1.8125,-4.484375
316,1695729840498,-0.37329102,-0.9404907,0.35150146,-1.859375,6.875,-1.3125
317,1695729840543,-0.3239746,-0.954895,0.35980225,1.53125,7.578125,1.375
318,1695729840588,-0.3557129,-0.93096924,0.3373413,-3.0625,9.828125,-3.15625
319,1695729840617,-0.3803711,-0.9151001,0.28240967,-4.34375,14.046875,-0.671875
320,1695729840662,-0.3918457,-0.94854736,0.3131714,6.953125,6.75,5.28125
321,1695729840710,-0.3479004,-0.97662354,0.3624878,9.21875,15.984375,-3.546875
322,1695729840739,-0.32055664,-0.8760376,0.3534546,5.140625,0.71875,-0.234375
323,1695729840784,-0.34936523,-0.88604736,0.27386475,0.109375,-6.65625,4.65625
324,1695729840816,-0.3413086,-0.9380493,0.3241577,-2.703125,-2.578125,1.390625
325,1695729840859,-0.3552246,-0.92755127,0.2982788,4.21875,-9.0625,3.265625
326,1695729840904,-0.33789062,-0.8858032,0.2736206,2.359375,-12.265625,6.359375
327,1695729840933,-0.34936523,-0.9155884,0.32635498,4.546875,-18.5625,10.625
328,1695729840978,-0.3449707,-0.95147705,0.26190186,-16.140625,-0.3125,0.0625
329,1695729841023,-0.30786133,-0.9741821,0.35003662,-4.265625,4.5625,-3.84375
330,1695729841053,-0.3647461,-0.956604,0.38153076,-7.015625,1.859375,-3.578125
331,1695729841098,-0.35498047,-0.91729736,0.31976318,-11.375,2.078125,-4.390625
332,1695729841128,-0.3737793,-0.89801025,0.3222046,-16.109375,0.65625,-5.859375
333,1695729841174,-0.38964844,-0.8826294,0.3895874,-9.984375,5.65625,-6.5625
334,1695729841219,-0.40063477,-0.92681885,0.38250732,-10.640625,0.3125,-1.734375
335,1695729841248,-0.3720703,-0.9380493,0.369812,-2.640625,5.734375,-2.609375
336,1695729841293,-0.31860352,-0.90997314,0.40130615,-2.75,9.59375,-5.625
337,1695729841338,-0.3527832,-0.9014282,0.39959717,4.421875,9.859375,1.125
338,1695729841369,-0.39282227,-0.9290161,0.40130615,5.84375,5.9375,0.6875
339,1695729841414,-0.36938477,-0.89849854,0.4081421,7.0,6.171875,0.265625
340,1695729841444,-0.3564453,-0.8530884,0.36053467,-5.0625,-2.46875,-0.203125
341,1695729841488,-0.41430664,-0.9343872,0.34246826,1.34375,-7.96875,1.328125
342,1695729841535,-0.32226562,-0.9336548,0.32025146,7.484375,-9.515625,3.875
343,1695729841564,-0.35058594,-0.8880005,0.39300537,13.859375,-8.875,8.40625
344,1695729841609,-0.3605957,-0.8916626,0.32391357,-9.375,-7.390625,6.5625
345,1695729841654,-0.3605957,-0.93829346,0.37493896,-10.109375,4.15625,-4.109375
346,1695729841688,-0.35375977,-0.95025635,0.3961792,-2.90625,2.453125,-0.4375
347,1695729841727,-0.3803711,-0.9048462,0.37176514,-5.578125,2.96875,0.078125
348,1695729841757,-0.36645508,-0.8777466,0.3793335,-0.296875,2.609375,-0.28125
349,1695729841804,-0.38232422,-0.9175415,0.3949585,-11.59375,-0.28125,0.015625
350,1695729841848,-0.4038086,-0.8921509,0.4537964,-5.8125,4.25,-1.78125
351,1695729841879,-0.3857422,-0.85772705,0.30218506,-10.453125,-6.546875,0.75
352,1695729841924,-0.33276367,-0.9351196,0.41644287,1.359375,-0.21875,3.71875
353,1695729841969,-0.29003906,-0.93585205,0.44256592,0.15625,9.75,-0.84375
354,1695729841999,-0.35083008,-0.9092407,0.43743896,7.359375,5.1875,1.0
355,1695729842043,-0.40649414,-0.9212036,0.37957764,9.921875,7.671875,1.171875
356,1695729842090,-0.3552246,-0.93170166,0.38885498,8.5625,12.140625,-2.21875
357,1695729842118,-0.3774414,-0.8665161,0.30975342,3.46875,-5.140625,1.890625
358,1695729842163,-0.3334961,-0.9133911,0.3600464,3.40625,1.65625,-1.96875
359,1695729842192,-0.36621094,-0.9324341,0.3937378,6.46875,-10.296875,5.765625
360,1695729842239,-0.32250977,-0.892395,0.3805542,-5.71875,-2.203125,4.328125
361,1695729842285,-0.3461914,-0.8753052,0.36346436,-7.375,-2.8125,2.578125
362,1695729842315,-0.34692383,-0.95684814,0.39959717,-8.578125,1.390625,-2.140625
363,1695729842359,-0.3466797,-0.94659424,0.40472412,-7.375,5.734375,-1.6875
364,1695729842388,-0.37402344,-0.8743286,0.40789795,1.296875,1.734375,-2.5
365,1695729842435,-0.38452148,-0.89556885,0.40472412,-0.25,4.75,-2.328125
366,1695729842478,-0.3479004,-0.9138794,0.42132568,-3.953125,7.234375,-1.53125
367,1695729842508,-0.3671875,-0.8892212,0.38690186,-1.21875,3.0,-4.328125
368,1695729842555,-0.34545898,-0.91778564,0.3727417,-1.3125,2.71875,-3.25
369,1695729842599,-0.32763672,-0.9417114,0.42791748,-4.796875,0.65625,-1.84375
370,1695729842628,-0.3635254,-0.87164307,0.4052124,0.765625,1.203125,-3.484375
371,1695729842674,-0.3708496,-0.96295166,0.41253662,2.25,7.03125,-4.34375
372,1695729842719,-0.3840332,-0.8753052,0.39276123,-3.4375,9.375,-1.671875
373,1695729842749,-0.39892578,-0.8464966,0.34661865,5.125,-6.203125,1.9375
374,1695729842793,-0.3269043,-0.9390259,0.40325928,-2.4375,3.59375,-1.484375
375,1695729842823,-0.34057617,-0.87677,0.37249756,3.765625,-3.78125,2.875
376,1695729842868,-0.40283203,-0.9116821,0.33416748,18.0625,-12.828125,6.484375
377,1695729842914,-0.32421875,-0.9475708,0.44207764,9.5625,2.15625,6.609375
378,1695729842943,-0.36279297,-0.8633423,0.31951904,-5.1875,-6.671875,8.203125
379,1695729842989,-0.34814453,-1.0044556,0.44281006,-6.875,19.890625,-6.015625
380,1695729843034,-0.33642578,-0.881897,0.37005615,2.015625,1.109375,-0.953125
381,1695729843064,-0.39624023,-0.8447876,0.36712646,-5.859375,1.640625,1.546875
382,1695729843109,-0.32202148,-0.9138794,0.41571045,-8.9375,0.40625,-2.75
383,1695729843138,-0.36523438,-0.93170166,0.39593506,-6.4375,-0.234375,-3.453125
384,1695729843186,-0.35131836,-0.8916626,0.4335327,-4.796875,9.359375,-6.125
385,1695729843228,-0.36914062,-0.9212036,0.40789795,4.390625,10.359375,-5.265625
386,1695729843258,-0.35986328,-0.9085083,0.42181396,10.40625,7.46875,-0.34375
387,1695729843304,-0.36572266,-0.93414307,0.3991089,9.90625,9.828125,1.0625
388,1695729843379,-0.36010742,-0.8777466,0.3546753,8.65625,-1.953125,2.421875
389,1695729843381,-0.36254883,-0.9121704,0.38250732,3.015625,0.015625,0.125
390,1695729843424,-0.32714844,-0.913147,0.369812,1.3125,0.15625,0.671875
391,1695729843499,-0.35839844,-0.9092407,0.32537842,2.375,-6.625,3.265625
392,1695729843502,-0.3232422,-0.89019775,0.31097412,7.734375,-8.09375,3.296875
393,1695729843544,-0.35424805,-0.90289307,0.36029053,10.015625,-12.4375,10.109375
394,1695729843574,-0.3515625,-0.92681885,0.354187,-5.953125,-9.296875,9.515625
395,1695729843633,-0.3022461,-0.9741821,0.3685913,-20.046875,4.8125,-7.671875
396,1695729843665,-0.34155273,-0.973938,0.37591553,-3.484375,6.734375,-5.859375
397,1695729843695,-0.36328125,-0.8945923,0.3920288,-4.0,3.5625,1.859375
398,1695729843738,-0.34985352,-0.8718872,0.37786865,-6.375,1.78125,-2.09375
399,1695729843768,-0.36083984,-0.91192627,0.40179443,-6.078125,-0.984375,-3.1875
400,1695729843814,-0.36669922,-0.90045166,0.40789795,0.109375,2.75,-1.25
401,1695729843858,-0.3515625,-0.9265747,0.40374756,0.25,6.953125,-2.171875
402,1695729843888,-0.3540039,-0.92633057,0.40838623,0.34375,1.1875,-2.34375
403,1695729843934,-0.35498047,-0.8765259,0.35882568,9.0625,-2.90625,1.34375
404,1695729843978,-0.3474121,-0.98321533,0.36053467,0.6875,12.21875,-0.28125
405,1695729844008,-0.34838867,-0.8792114,0.38812256,10.796875,0.203125,2.40625
406,1695729844053,-0.4099121,-0.87579346,0.30950928,3.046875,-8.390625,2.96875
407,1695729844084,-0.3227539,-0.9524536,0.35638428,-1.890625,3.875,0.578125
408,1695729844128,-0.328125,-0.9072876,0.31072998,5.640625,-7.125,4.90625
409,1695729844174,-0.33666992,-0.8928833,0.3427124,2.65625,-4.78125,4.796875
410,1695729844203,-0.3017578,-0.9295044,0.38104248,-4.6875,-8.65625,3.75
411,1695729844249,-0.38354492,-0.8989868,0.33416748,-22.296875,-7.953125,-0.140625
412,1695729844292,-0.33789062,-0.9365845,0.4286499,-8.484375,2.6875,-9.09375
413,1695729844323,-0.37451172,-0.9487915,0.4105835,-11.65625,-1.703125,-2.21875
414,1695729844369,-0.3684082,-0.8726196,0.39886475,-6.5,3.421875,-1.859375
415,1695729844398,-0.3564453,-0.8743286,0.3842163,-5.09375,-1.734375,-3.03125
416,1695729844448,-0.37329102,-0.895813,0.42816162,-1.875,3.453125,-1.09375
417,1695729844489,-0.3864746,-0.89556885,0.43792725,1.609375,3.1875,1.0
418,1695729844519,-0.38061523,-0.91729736,0.40911865,5.84375,15.046875,-1.90625
419,1695729844565,-0.31176758,-0.9065552,0.44036865,14.765625,13.875,-2.203125
420,1695729844607,-0.39013672,-0.9163208,0.3632202,8.6875,5.4375,5.171875
421,1695729844637,-0.37597656,-0.91290283,0.3685913,7.484375,6.390625,0.421875
422,1695729844682,-0.34326172,-0.895813,0.41766357,4.09375,-4.359375,-0.203125
423,1695729844712,-0.37597656,-0.9036255,0.3065796,-3.0625,-6.1875,2.578125
424,1695729844758,-0.33642578,-0.9326782,0.36175537,3.90625,0.21875,-1.265625
425,1695729844802,-0.31811523,-0.8887329,0.31903076,6.0625,-9.609375,5.59375
426,1695729844833,-0.36523438,-0.9089966,0.35736084,4.34375,-5.921875,6.6875
427,1695729844877,-0.3149414,-0.9246216,0.33929443,-5.171875,-8.5625,2.140625
428,1695729844921,-0.37963867,-0.9319458,0.3583374,-10.03125,-3.6875,-0.484375
429,1695729844951,-0.31176758,-0.96759033,0.41253662,-8.0625,5.21875,-2.890625
430,1695729844998,-0.35083008,-0.9229126,0.38690186,-7.234375,5.0,-2.359375
431,1695729845027,-0.35766602,-0.8882446,0.35662842,-8.0,4.421875,-2.875
432,1695729845074,-0.3491211,-0.895813,0.4220581,1.15625,2.546875,-2.296875
433,1695729845118,-0.3762207,-0.9273071,0.3944702,-1.125,2.03125,-1.578125
434,1695729845148,-0.35424805,-0.9104614,0.44110107,4.765625,10.953125,-4.953125
435,1695729845193,-0.35229492,-0.90338135,0.3600464,2.390625,4.453125,-2.84375
436,1695729845241,-0.35107422,-0.92071533,0.39837646,6.5625,8.015625,-0.40625
437,1695729845270,-0.34350586,-0.9456177,0.35638428,4.953125,18.234375,-0.46875
438,1695729845314,-0.36694336,-0.8831177,0.3859253,9.8125,4.828125,2.40625
439,1695729845343,-0.3383789,-0.8960571,0.29852295,-0.890625,-8.53125,2.0625
440,1695729845390,-0.31567383,-0.94659424,0.37225342,5.296875,0.671875,0.125
441,1695729845437,-0.31811523,-0.89849854,0.32244873,2.859375,-4.59375,5.703125
442,1695729845465,-0.37597656,-0.92388916,0.30926514,3.59375,-0.875,3.484375
443,1695729845508,-0.30249023,-0.942688,0.3595581,2.234375,7.859375,-1.515625
444,1695729845558,-0.35375977,-0.92974854,0.34661865,2.703125,-0.265625,5.046875
445,1695729845583,-0.31030273,-0.909729,0.3781128,-0.265625,-3.359375,3.84375
446,1695729845627,-0.32250977,-0.92755127,0.3612671,-13.40625,-5.046875,0.78125
447,1695729845658,-0.35253906,-0.9265747,0.37445068,-8.625,0.421875,-2.703125
448,1695729845703,-0.3635254,-0.92926025,0.42034912,-1.84375,-1.4375,-2.03125
449,1695729845748,-0.3605957,-0.90875244,0.36468506,-3.578125,2.40625,-0.890625
450,1695729845778,-0.33764648,-0.9180298,0.37542725,1.40625,16.75,-6.25
451,1695729845824,-0.3251953,-0.96221924,0.4142456,6.921875,19.78125,-3.8125
452,1695729845869,-0.3413086,-0.9104614,0.3534546,8.265625,12.171875,1.453125
453,1695729845899,-0.34277344,-0.9192505,0.3463745,6.390625,11.828125,-2.0625
454,1695729845944,-0.32495117,-0.91485596,0.39837646,3.703125,3.328125,0.5
455,1695729845975,-0.3552246,-0.89971924,0.35076904,-0.6875,-4.421875,3.328125
456,1695729846018,-0.31274414,-0.95513916,0.33416748,0.96875,3.546875,-2.4375
457,1695729846064,-0.29345703,-0.9277954,0.3534546,3.03125,-3.65625,1.15625
458,1695729846094,-0.36108398,-0.8994751,0.2765503,5.421875,-15.84375,7.078125
459,1695729846139,-0.3334961,-0.9356079,0.37835693,3.28125,-11.109375,3.015625
460,1695729846184,-0.3154297,-0.9168091,0.30584717,-2.765625,-18.109375,4.546875
461,1695729846215,-0.32128906,-0.9133911,0.3270874,-13.46875,-10.953125,0.828125
462,1695729846258,-0.3071289,-1.000061,0.3937378,-11.4375,-1.109375,-6.046875
463,1695729846289,-0.38891602,-0.9624634,0.31732178,-9.0,2.171875,-3.234375
464,1695729846334,-0.34057617,-0.8845825,0.33685303,0.4375,4.765625,-2.28125
465,1695729846379,-0.32739258,-0.88604736,0.39105225,0.296875,0.671875,-3.0
466,1695729846408,-0.35107422,-0.9678345,0.39715576,0.203125,1.03125,-4.46875
467,1695729846455,-0.32470703,-0.89385986,0.32196045,-3.21875,0.25,-4.390625
468,1695729846500,-0.3918457,-0.8994751,0.37908936,0.453125,7.4375,-1.96875
469,1695729846532,-0.39868164,-0.94195557,0.35394287,-3.921875,8.484375,-2.796875
470,1695729846574,-0.36914062,-0.9380493,0.37347412,6.0,17.25,-4.625
471,1695729846619,-0.33862305,-0.91656494,0.35784912,6.375,18.21875,0.390625
472,1695729846648,-0.39013672,-0.8648071,0.28118896,9.015625,5.046875,3.53125
473,1695729846694,-0.33813477,-0.98150635,0.41131592,22.484375,4.46875,-0.09375
474,1695729846724,-0.31689453,-0.90704346,0.34539795,5.625,-4.84375,3.421875
475,1695729846769,-0.3305664,-0.881897,0.25213623,0.921875,-5.6875,3.421875
476,1695729846814,-0.33984375,-0.9360962,0.277771,4.25,-9.484375,3.015625
477,1695729846844,-0.33544922,-0.94073486,0.33319092,-5.390625,-12.015625,4.640625
478,1695729846889,-0.33666992,-0.91070557,0.29534912,-10.375,-13.3125,4.15625
479,1695729846934,-0.32202148,-0.99346924,0.35980225,-10.578125,0.171875,-4.375
480,1695729846966,-0.3642578,-0.95513916,0.32684326,-7.96875,0.796875,-0.703125
481,1695729847009,-0.37695312,-0.8711548,0.3222046,2.96875,2.703125,0.453125
482,1695729847039,-0.37890625,-0.9385376,0.36346436,1.109375,6.078125,2.640625
483,1695729847083,-0.34277344,-0.94122314,0.33294678,-0.5625,4.453125,0.78125
484,1695729847127,-0.3269043,-0.95391846,0.32391357,0.0,13.25,-3.390625
485,1695729847158,-0.32763672,-0.9446411,0.32489014,1.0625,14.625,-2.96875
486,1695729847203,-0.35742188,-0.91607666,0.3546753,10.125,15.203125,0.390625
487,1695729847248,-0.33764648,-0.9692993,0.33221436,8.515625,13.125,-0.90625
488,1695729847278,-0.32080078,-0.9338989,0.3192749,4.828125,8.0625,0.40625
489,1695729847325,-0.3095703,-0.8740845,0.29656982,1.34375,-0.3125,0.234375
490,1695729847353,-0.32470703,-0.9212036,0.31414795,-5.421875,-5.0,1.625
491,1695729847413,-0.33544922,-0.9546509,0.31610107,0.5,-6.828125,1.40625
492,1695729847443,-0.30615234,-0.91656494,0.30316162,4.84375,-15.953125,4.171875
493,1695729847474,-0.29516602,-0.91363525,0.31585693,-4.765625,-19.375,6.296875
494,1695729847519,-0.33935547,-0.95440674,0.31488037,-13.765625,-9.671875,0.015625
495,1695729847595,-0.32226562,-0.9915161,0.37225342,-5.25,1.765625,-5.6875
496,1695729847598,-0.40283203,-0.9221802,0.32366943,-1.609375,-4.953125,3.5
497,1695729847639,-0.3125,-0.89141846,0.27996826,-4.4375,9.21875,0.140625
498,1695729847668,-0.32177734,-0.98223877,0.35736084,-2.59375,3.984375,0.0
499,1695729847715,-0.34838867,-0.93170166,0.36566162,-4.8125,5.625,-0.34375
500,1695729847758,-0.296875,-0.9343872,0.3295288,-4.484375,0.96875,-1.015625
501,1695729847788,-0.32739258,-0.9685669,0.36224365,-1.828125,11.0625,-4.125
502,1695729847836,-0.32910156,-0.94195557,0.38763428,4.25,15.1875,-4.96875
503,1695729847878,-0.3959961,-0.92926025,0.33319092,3.984375,12.390625,2.125
504,1695729847924,-0.3425293,-0.8753052,0.3102417,4.78125,5.8125,1.375
505,1695729847954,-0.2866211,-0.91290283,0.3710327,8.25,-2.84375,-0.1875
506,1695729847983,-0.32348633,-0.93951416,0.31610107,-2.96875,-7.234375,2.0625
507,1695729848028,-0.30029297,-0.95635986,0.36590576,1.265625,-1.546875,2.59375
508,1695729848075,-0.34594727,-0.9241333,0.2819214,2.53125,-14.359375,6.421875
509,1695729848104,-0.3540039,-0.9092407,0.3295288,4.703125,-12.671875,7.5
510,1695729848149,-0.29370117,-0.94903564,0.33636475,-12.21875,-15.046875,3.171875
511,1695729848192,-0.32910156,-0.93707275,0.33270264,-14.953125,-4.34375,-1.25
512,1695729848223,-0.3232422,-0.96954346,0.35125732,-10.53125,8.28125,-1.234375
513,1695729848286,-0.33569336,-0.93878174,0.3649292,-1.921875,3.140625,0.515625
514,1695729848299,-0.32958984,-0.894104,0.33709717,-3.046875,1.875,-1.34375
515,1695729848344,-0.30493164,-0.92755127,0.3607788,-2.109375,0.84375,-3.59375
516,1695729848389,-0.34277344,-0.94732666,0.39666748,0.265625,6.109375,-2.265625
517,1695729848418,-0.36010742,-0.9104614,0.34368896,3.640625,12.046875,-4.34375
518,1695729848464,-0.3408203,-0.9290161,0.36712646,19.359375,19.1875,-2.875
519,1695729848508,-0.31176758,-0.96466064,0.34539795,9.328125,16.65625,3.65625
520,1695729848538,-0.31713867,-0.9019165,0.28656006,13.8125,14.828125,0.375
521,1695729848584,-0.30639648,-0.92755127,0.35882568,8.234375,5.234375,0.890625
522,1695729848614,-0.29882812,-0.9390259,0.30316162,0.609375,-5.046875,2.25
523,1695729848658,-0.29248047,-0.94000244,0.29608154,0.484375,-7.203125,1.84375
524,1695729848704,-0.3088379,-0.9446411,0.26556396,-0.578125,-13.90625,0.90625
525,1695729848733,-0.30297852,-0.9343872,0.33880615,3.1875,-20.25,5.5625
526,1695729848778,-0.32250977,-0.9553833,0.3131714,-12.15625,-14.34375,1.03125
527,1695729848823,-0.29907227,-0.9380493,0.2994995,-31.1875,-3.03125,-6.796875
528,1695729848854,-0.28076172,-0.9378052,0.3534546,-8.78125,5.03125,-5.28125
529,1695729848899,-0.36889648,-0.9644165,0.36346436,-1.359375,-1.03125,2.84375
530,1695729848928,-0.36572266,-0.8796997,0.35760498,-4.453125,-2.984375,-2.140625
531,1695729848974,-0.33081055,-0.91485596,0.37493896,-2.0,2.078125,-1.828125
532,1695729849019,-0.32910156,-0.9336548,0.38275146,1.5,7.0,1.546875
533,1695729849051,-0.31298828,-0.93878174,0.31878662,3.265625,10.203125,-3.484375
534,1695729849094,-0.33691406,-0.9483032,0.3554077,7.546875,6.234375,-4.015625
535,1695729849138,-0.3395996,-0.9517212,0.34783936,6.515625,7.953125,1.328125
536,1695729849184,-0.34301758,-0.913147,0.33758545,1.734375,4.703125,-0.53125
537,1695729849213,-0.34716797,-0.90631104,0.3361206,2.234375,3.125,-0.75
538,1695729849245,-0.3466797,-0.94000244,0.32806396,3.859375,7.296875,-1.0625
539,1695729849289,-0.30419922,-0.91851807,0.32733154,2.515625,-0.015625,-0.953125
540,1695729849333,-0.32226562,-0.9273071,0.31170654,-0.640625,-6.15625,1.8125
541,1695729849365,-0.3137207,-0.93951416,0.2802124,0.75,-7.53125,1.8125
542,1695729849408,-0.30932617,-0.9204712,0.35638428,0.640625,-11.765625,4.515625
543,1695729849453,-0.38745117,-0.92144775,0.32659912,-19.765625,-14.9375,2.96875
544,1695729849483,-0.30444336,-0.95977783,0.354187,-9.859375,-8.078125,-13.953125
545,1695729849528,-0.28808594,-0.9692993,0.3468628,-3.953125,2.234375,-3.671875
546,1695729849559,-0.42163086,-0.8887329,0.3600464,-9.921875,-0.1875,6.453125
547,1695729849604,-0.40478516,-0.8928833,0.35076904,-3.4375,1.921875,-2.546875
548,1695729849649,-0.36547852,-0.942688,0.41033936,1.65625,5.96875,-2.25
549,1695729849680,-0.3166504,-0.9055786,0.3505249,2.171875,9.671875,3.109375
550,1695729849723,-0.33081055,-0.9126587,0.35662842,6.5625,11.21875,-2.390625
551,1695729849769,-0.36767578,-0.94244385,0.36688232,3.578125,9.359375,-0.921875
552,1695729849798,-0.3527832,-0.9343872,0.34735107,5.859375,10.6875,2.84375
553,1695729849843,-0.33911133,-0.92633057,0.34466553,6.703125,4.53125,-1.171875
554,1695729849874,-0.3605957,-0.8911743,0.33880615,2.4375,4.640625,-0.75
555,1695729849919,-0.33789062,-0.9282837,0.34979248,-0.78125,4.515625,0.515625
556,1695729849967,-0.32226562,-0.9312134,0.3024292,-1.15625,-6.0,1.875
557,1695729849995,-0.31469727,-0.9258423,0.3102417,4.28125,-4.8125,-0.234375
558,1695729850037,-0.30004883,-0.9368286,0.36224365,2.484375,-10.484375,2.265625
559,1695729850081,-0.35864258,-0.9116821,0.31756592,-5.03125,-17.0,6.203125
560,1695729850116,-0.33398438,-0.94122314,0.3571167,-1.34375,-10.78125,-9.640625
561,1695729850157,-0.3076172,-0.97247314,0.3258667,-7.09375,-2.71875,-8.6875
562,1695729850188,-0.390625,-0.8855591,0.32269287,-7.40625,1.90625,1.765625
563,1695729850237,-0.3918457,-0.9053345,0.33929443,-3.640625,0.109375,-1.296875
564,1695729850279,-0.39160156,-0.93414307,0.35369873,-4.140625,2.296875,-2.28125
565,1695729850309,-0.33081055,-0.9077759,0.36224365,-3.234375,4.265625,2.203125
566,1695729850356,-0.3713379,-0.9170532,0.39227295,1.390625,9.546875,0.0
567,1695729850398,-0.35986328,-0.95147705,0.3180542,-2.546875,14.859375,-3.6875
568,1695729850430,-0.3190918,-0.9331665,0.3546753,11.40625,28.140625,-1.6875
569,1695729850475,-0.3828125,-0.93634033,0.39349365,9.328125,12.078125,3.375
570,1695729850520,-0.32202148,-0.87335205,0.2999878,2.6875,0.65625,1.765625
571,1695729850551,-0.3173828,-0.91851807,0.35858154,4.609375,-2.25,-0.96875
572,1695729850593,-0.3474121,-0.9194946,0.385437,1.3125,-4.5625,2.46875
573,1695729850624,-0.39990234,-0.91778564,0.2897339,-5.9375,-8.578125,5.359375
574,1695729850669,-0.32958984,-0.9151001,0.30804443,0.96875,-12.421875,2.453125
575,1695729850716,-0.2763672,-0.92437744,0.37420654,4.40625,-21.109375,5.40625
576,1695729850744,-0.36254883,-0.92852783,0.3217163,-7.078125,-13.984375,9.984375
577,1695729850789,-0.36523438,-0.9692993,0.34857178,-13.53125,-0.046875,-1.578125
578,1695729850835,-0.36621094,-0.9116821,0.28997803,3.625,1.625,-1.875
579,1695729850864,-0.32226562,-0.93341064,0.39764404,-1.34375,2.71875,3.890625
580,1695729850909,-0.3154297,-0.9216919,0.34490967,-2.15625,2.546875,0.109375
581,1695729850938,-0.35205078,-0.93096924,0.36810303,1.5625,1.9375,-1.515625
582,1695729850985,-0.34228516,-0.93218994,0.36517334,1.125,7.625,-0.796875
583,1695729851029,-0.3581543,-0.940979,0.34881592,0.328125,10.515625,-3.78125
584,1695729851058,-0.3359375,-0.93414307,0.34051514,3.84375,10.53125,-2.859375
585,1695729851104,-0.3178711,-0.9380493,0.31048584,7.140625,10.859375,0.96875
586,1695729851150,-0.32177734,-0.925354,0.33441162,9.9375,4.9375,0.828125
587,1695729851179,-0.34594727,-0.9338989,0.31243896,2.609375,5.296875,-0.953125
588,1695729851223,-0.33154297,-0.93218994,0.31732178,3.15625,1.53125,-0.078125
589,1695729851253,-0.30639648,-0.89849854,0.29632568,1.484375,-2.359375,1.796875
590,1695729851299,-0.32348633,-0.9529419,0.30975342,-2.0625,-2.359375,0.875
591,1695729851345,-0.3125,-0.93756104,0.2987671,-2.15625,-2.0,0.0625
592,1695729851374,-0.32666016,-0.9221802,0.3036499,4.890625,-9.25,4.84375
593,1695729851419,-0.30541992,-0.93463135,0.34613037,2.0625,-11.125,7.078125
594,1695729851494,-0.34643555,-0.9290161,0.31414795,-13.1875,-15.46875,6.109375
595,1695729851497,-0.33764648,-0.99053955,0.32366943,-10.515625,0.125,-2.53125
596,1695729851538,-0.3161621,-0.96417236,0.3390503,-7.984375,3.828125,-3.953125
597,1695729851568,-0.34765625,-0.90338135,0.340271,-5.75,0.578125,-0.9375
598,1695729851613,-0.33129883,-0.9067993,0.31829834,-3.5,4.265625,-1.21875
599,1695729851658,-0.3388672,-0.96466064,0.37347412,4.71875,9.765625,-1.578125
600,1695729851688,-0.35864258,-0.9524536,0.37298584,0.609375,13.015625,-1.015625
601,1695729851735,-0.34472656,-0.9163208,0.24188232,0.734375,9.03125,-0.390625
602,1695729851779,-0.25585938,-0.94366455,0.35638428,9.921875,11.359375,-0.765625
603,1695729851808,-0.28735352,-0.9143677,0.36273193,4.625,-3.703125,2.28125
604,1695729851854,-0.3815918,-0.97540283,0.31292725,0.5,3.453125,-0.609375
605,1695729851884,-0.30908203,-0.91778564,0.3258667,1.4375,0.390625,-2.046875
606,1695729851929,-0.31152344,-0.89801025,0.26409912,-0.421875,-10.390625,1.96875
607,1695729851974,-0.30981445,-0.940979,0.29559326,-1.53125,-4.6875,-1.25
608,1695729852006,-0.31884766,-0.9385376,0.36273193,2.84375,-7.875,2.859375
609,1695729852048,-0.34643555,-0.91070557,0.26727295,-7.3125,-6.265625,1.21875
610,1695729852094,-0.30322266,-0.98883057,0.35638428,-5.796875,3.171875,-4.203125
611,1695729852125,-0.31567383,-0.9746704,0.33929443,-5.046875,-1.34375,-1.71875
612,1695729852169,-0.35327148,-0.8843384,0.32318115,-7.625,2.671875,3.359375
613,1695729852199,-0.35229492,-0.9060669,0.3241577,-6.71875,4.21875,-2.734375
614,1695729852243,-0.3256836,-0.9741821,0.39642334,-5.03125,6.5625,-2.265625
615,1695729852288,-0.31640625,-0.9182739,0.35931396,-4.515625,6.65625,-0.5625
616,1695729852319,-0.33007812,-0.90582275,0.36444092,-3.21875,12.453125,-4.40625
617,1695729852364,-0.31640625,-0.986145,0.39642334,0.484375,22.171875,-9.375
618,1695729852409,-0.31469727,-0.9229126,0.34588623,-9.171875,11.453125,-6.46875
619,1695729852438,-0.31689453,-0.8753052,0.38397217,8.78125,3.375,-2.28125
620,1695729852483,-0.33129883,-0.9175415,0.4147339,5.1875,-2.890625,-0.59375
621,1695729852515,-0.3779297,-0.9116821,0.37469482,2.015625,-4.671875,2.203125
622,1695729852558,-0.38378906,-0.9121704,0.36029053,-0.25,0.625,1.1875
623,1695729852602,-0.31054688,-0.91241455,0.38494873,-2.09375,-4.609375,-0.421875
624,1695729852632,-0.32543945,-0.91070557,0.3258667,0.296875,-16.75,3.703125
625,1695729852679,-0.33251953,-0.92803955,0.35443115,-1.6875,-8.921875,2.9375
626,1695729852723,-0.34765625,-0.91070557,0.36541748,2.765625,-16.03125,7.84375
627,1695729852753,-0.39770508,-0.9192505,0.37298584,-3.71875,-9.15625,6.71875
628,1695729852799,-0.33276367,-0.9456177,0.37542725,-4.265625,1.546875,-2.875
629,1695729852829,-0.34936523,-0.9234009,0.34246826,3.375,4.34375,0.28125
630,1695729852876,-0.34887695,-0.92755127,0.3776245,10.8125,8.140625,4.171875
631,1695729852919,-0.34521484,-0.91607666,0.3163452,3.125,7.84375,1.328125
632,1695729852949,-0.34301758,-0.94073486,0.31976318,1.15625,10.265625,0.578125
633,1695729852992,-0.31323242,-0.9492798,0.33807373,-1.40625,15.0,-0.953125
634,1695729853038,-0.3088379,-0.9507446,0.37347412,7.609375,12.71875,-1.71875
635,1695729853069,-0.3149414,-0.9248657,0.3480835,-5.109375,2.375,-0.203125
636,1695729853116,-0.32128906,-0.9060669,0.31903076,-2.171875,4.109375,-3.9375
637,1695729853144,-0.3251953,-0.940979,0.36419678,4.90625,7.125,-2.859375
638,1695729853189,-0.33398438,-0.92022705,0.35101318,-0.46875,7.125,-1.53125
639,1695729853234,-0.32128906,-0.8916626,0.3180542,3.359375,-3.15625,-3.09375
640,1695729853263,-0.35620117,-0.9534302,0.3612671,6.671875,-4.40625,0.984375
641,1695729853308,-0.34692383,-0.9053345,0.3348999,-4.796875,-6.734375,2.734375
642,1695729853352,-0.3178711,-0.9302368,0.3204956,4.28125,-7.71875,0.875
643,1695729853383,-0.3088379,-0.911438,0.32073975,0.90625,-8.1875,3.4375
644,1695729853430,-0.35180664,-0.9246216,0.31341553,1.78125,-10.28125,9.5
645,1695729853460,-0.31079102,-0.94854736,0.3373413,-18.90625,-1.125,-0.375
646,1695729853505,-0.33740234,-0.96661377,0.3451538,-2.875,0.1875,-5.140625
647,1695729853564,-0.34350586,-0.9404907,0.36395264,-2.625,2.734375,1.90625
648,1695729853578,-0.32080078,-0.8826294,0.3300171,-5.359375,-0.640625,-0.5625
649,1695729853625,-0.30541992,-0.94317627,0.35662842,1.015625,4.359375,-0.90625
650,1695729853670,-0.3383789,-0.9368286,0.38250732,8.453125,3.140625,2.375
651,1695729853705,-0.3869629,-0.94854736,0.3805542,5.0625,7.75,1.609375
652,1695729853745,-0.31591797,-0.9365845,0.31341553,-4.75,10.46875,-5.296875
653,1695729853775,-0.2758789,-0.94415283,0.38006592,6.9375,10.671875,-5.328125
654,1695729853818,-0.28564453,-0.90948486,0.2616577,-0.59375,1.375,-0.234375
655,1695729853863,-0.36523438,-0.9573364,0.3258667,7.65625,10.40625,-3.234375
656,1695729853894,-0.31835938,-0.9314575,0.34490967,5.984375,-2.59375,-2.96875
657,1695729853938,-0.39648438,-0.91241455,0.30194092,-1.453125,-4.53125,1.625
658,1695729853983,-0.30664062,-0.94317627,0.2711792,1.15625,-2.09375,0.734375
659,1695729854013,-0.31201172,-0.90093994,0.32635498,8.046875,-7.671875,3.671875
660,1695729854058,-0.33984375,-0.92803955,0.3287964,-13.375,-15.8125,8.921875
661,1695729854104,-0.3256836,-0.91363525,0.28533936,-22.296875,-5.359375,-3.4375
662,1695729854134,-0.33691406,-1.0042114,0.42645264,-3.6875,-0.484375,-4.59375
663,1695729854178,-0.32421875,-0.9365845,0.3373413,-13.703125,6.34375,2.96875
664,1695729854209,-0.33789062,-0.84259033,0.354187,-1.75,0.625,2.0625
665,1695729854254,-0.32861328,-0.9163208,0.38909912,-6.640625,-0.765625,-1.625
666,1695729854298,-0.359375,-0.95806885,0.39691162,-0.859375,1.21875,0.015625
667,1695729854328,-0.34228516,-0.9055786,0.36151123,2.375,7.65625,0.015625
668,1695729854373,-0.3071289,-0.9038696,0.34466553,8.46875,12.359375,-3.546875
669,1695729854419,-0.30981445,-0.98809814,0.3986206,9.203125,7.4375,-0.6875
670,1695729854449,-0.31445312,-0.9133911,0.35272217,3.390625,1.515625,-0.875
671,1695729854494,-0.3972168,-0.88775635,0.28631592,4.0,-5.453125,1.765625
672,1695729854525,-0.31567383,-0.95562744,0.36419678,4.125,8.359375,-2.0625
673,1695729854568,-0.33569336,-0.9002075,0.34613037,6.390625,-10.5,3.421875
674,1695729854615,-0.40112305,-0.90216064,0.27459717,3.765625,-5.453125,5.3125
675,1695729854645,-0.30151367,-0.95806885,0.34173584,-1.84375,-7.4375,3.4375
676,1695729854689,-0.32006836,-0.9336548,0.35491943,-7.625,-11.359375,7.84375
677,1695729854735,-0.35375977,-0.9067993,0.307312,-11.546875,-6.59375,-0.390625
678,1695729854763,-0.30566406,-0.9976196,0.3468628,-5.09375,-1.9375,-6.703125
679,1695729854811,-0.33496094,-0.9133911,0.35736084,-1.875,1.828125,-1.0625
680,1695729854884,-0.30859375,-0.9043579,0.3859253,-4.859375,4.625,0.390625
681,1695729854887,-0.40551758,-0.9373169,0.37469482,-3.921875,-0.1875,1.8125
682,1695729854929,-0.33496094,-0.91290283,0.3480835,-4.6875,5.40625,-3.671875
683,1695729854958,-0.27026367,-0.9314575,0.35931396,0.3125,11.453125,-1.6875
684,1695729855003,-0.34423828,-0.9446411,0.33319092,1.9375,4.734375,0.484375
685,1695729855051,-0.3552246,-0.95025635,0.3834839,2.234375,4.84375,-0.53125
686,1695729855077,-0.35058594,-0.93096924,0.34539795,2.203125,4.53125,-2.671875
687,1695729855123,-0.34375,-0.9168091,0.3468628,4.203125,5.109375,-1.3125
688,1695729855153,-0.30810547,-0.91900635,0.32196045,2.78125,1.25,-0.65625
689,1695729855198,-0.33007812,-0.9146118,0.33685303,3.546875,-2.21875,1.21875
690,1695729855243,-0.3322754,-0.91851807,0.30926514,2.5,-5.296875,1.25
691,1695729855279,-0.3479004,-0.9299927,0.34124756,3.6875,-8.3125,4.5
692,1695729855319,-0.31958008,-0.9404907,0.35931396,-2.90625,-9.578125,6.34375
693,1695729855363,-0.4020996,-0.93756104,0.35272217,-12.078125,-2.625,4.265625
694,1695729855395,-0.26635742,-0.9807739,0.3283081,-8.921875,18.171875,0.21875
695,1695729855438,-0.2722168,-0.88238525,0.3475952,0.453125,4.390625,0.703125
696,1695729855469,-0.30371094,-0.9192505,0.39227295,-5.671875,-2.46875,0.78125
697,1695729855517,-0.32177734,-0.95391846,0.4064331,-0.046875,-2.484375,0.03125
698,1695729855558,-0.3503418,-0.9055786,0.3768921,1.046875,-0.984375,-1.890625
699,1695729855589,-0.3552246,-0.9077759,0.35272217,2.5,7.640625,-3.53125
700,1695729855633,-0.32006836,-0.928772,0.35662842,3.9375,7.078125,-3.953125
701,1695729855678,-0.3359375,-1.0256958,0.41326904,8.890625,13.3125,1.3125
702,1695729855710,-0.32080078,-0.9187622,0.29071045,6.203125,9.125,2.53125
703,1695729855757,-0.31152344,-0.91534424,0.30877686,2.234375,11.140625,-0.1875
704,1695729855789,-0.3005371,-0.9065552,0.33709717,9.78125,0.515625,2.125
705,1695729855830,-0.27856445,-0.9414673,0.34344482,0.765625,-2.671875,3.5
706,1695729855875,-0.27441406,-0.9265747,0.2838745,-0.671875,-9.484375,2.90625
707,1695729855904,-0.30322266,-0.9553833,0.35662842,2.796875,-12.1875,3.75
708,1695729855949,-0.3059082,-0.9234009,0.3295288,-18.15625,-10.28125,2.96875
709,1695729855993,-0.35107422,-0.95562744,0.354187,-11.625,-2.8125,-3.140625
710,1695729856024,-0.35205078,-0.99224854,0.35247803,-14.90625,13.03125,-2.625
711,1695729856069,-0.28833008,-0.880188,0.37322998,-4.125,9.359375,0.34375
712,1695729856098,-0.28051758,-0.8755493,0.3619995,-4.3125,3.21875,0.34375
713,1695729856145,-0.3071289,-0.972229,0.41278076,-0.140625,6.21875,1.03125
714,1695729856189,-0.28857422,-0.89849854,0.39935303,1.453125,-1.78125,0.34375
715,1695729856218,-0.32055664,-0.90997314,0.4159546,10.546875,-5.078125,-0.71875
716,1695729856265,-0.32958984,-0.9524536,0.3710327,15.125,2.296875,0.984375
717,1695729856309,-0.33618164,-0.95318604,0.32366943,4.640625,8.03125,-0.734375
718,1695729856338,-0.26708984,-0.90875244,0.3373413,8.75,11.625,-4.1875
719,1695729856383,-0.2956543,-0.9116821,0.29608154,6.875,5.9375,2.4375
720,1695729856413,-0.33129883,-0.9973755,0.338562,3.453125,-0.46875,-0.53125
721,1695729856458,-0.28637695,-0.93536377,0.31829834,7.25,-3.140625,-0.625
722,1695729856508,-0.28027344,-0.9302368,0.28045654,1.890625,-4.484375,3.65625
723,1695729856533,-0.2866211,-0.9483032,0.322937,-6.390625,-7.078125,1.359375
724,1695729856579,-0.30566406,-0.90753174,0.3241577,-15.625,-7.046875,-1.3125
725,1695729856624,-0.31860352,-1.0073853,0.3673706,-17.359375,5.953125,-10.796875
726,1695729856654,-0.33642578,-0.91729736,0.3517456,-9.5625,0.140625,-6.78125
727,1695729856699,-0.30615234,-0.89508057,0.35882568,-7.734375,-1.765625,-4.28125
728,1695729856728,-0.3173828,-0.93218994,0.37786865,0.796875,-3.25,-3.875
729,1695729856773,-0.36645508,-0.9158325,0.42303467,0.3125,-5.0,0.390625
730,1695729856818,-0.39160156,-0.89971924,0.33807373,-2.9375,-1.109375,-0.953125
731,1695729856848,-0.32714844,-0.93292236,0.36273193,6.25,5.9375,-1.1875
732,1695729856894,-0.30541992,-0.91973877,0.36273193,5.03125,5.4375,1.5
733,1695729856938,-0.35180664,-0.9390259,0.355896,1.484375,1.59375,-0.078125
734,1695729856969,-0.3815918,-0.9746704,0.37982178,5.140625,14.46875,-0.78125
735,1695729857014,-0.34106445,-0.89678955,0.3287964,2.75,8.828125,2.6875
736,1695729857048,-0.30932617,-0.89312744,0.29437256,6.09375,5.046875,-1.875
737,1695729857089,-0.30371094,-0.95684814,0.36419678,4.890625,6.5,-1.921875
738,1695729857134,-0.33691406,-0.93048096,0.35247803,6.90625,-7.25,5.625
739,1695729857165,-0.30249023,-0.92755127,0.3270874,1.46875,-7.53125,3.0
740,1695729857209,-0.31176758,-0.91119385,0.33514404,-1.859375,-18.3125,6.328125
741,1695729857268,-0.36865234,-0.89434814,0.293396,-20.171875,-6.34375,1.25
742,1695729857283,-0.32177734,-1.0142212,0.40325928,-8.15625,0.65625,-4.828125
743,1695729857329,-0.33862305,-0.9524536,0.38250732,-5.03125,-2.1875,-2.0
744,1695729857358,-0.31640625,-0.86968994,0.30999756,-6.625,-0.765625,-0.5
745,1695729857405,-0.32421875,-0.93341064,0.3908081,-4.46875,4.734375,-3.734375
746,1695729857449,-0.34570312,-0.911438,0.3612671,-9.078125,1.359375,-8.3125
747,1695729857478,-0.39697266,-0.87701416,0.4093628,4.3125,1.421875,-4.625
748,1695729857524,-0.36694336,-0.9534302,0.38201904,-2.671875,5.59375,-4.40625
749,1695729857568,-0.35888672,-0.9360962,0.35491943,5.359375,2.671875,-0.90625
750,1695729857599,-0.38549805,-0.92071533,0.39788818,5.90625,11.96875,-3.109375
751,1695729857660,-0.34521484,-0.92022705,0.3859253,6.609375,9.03125,1.25
752,1695729857674,-0.3310547,-0.90093994,0.28826904,-8.171875,-0.078125,6.625
753,1695729857719,-0.32861328,-0.90216064,0.3600464,-6.171875,0.390625,-1.5
754,1695729857763,-0.35498047,-0.9194946,0.4064331,1.34375,-5.96875,-1.859375
755,1695729857794,-0.34887695,-0.8789673,0.39398193,1.46875,-10.3125,6.328125
756,1695729857839,-0.35302734,-0.8640747,0.37200928,-3.78125,-22.859375,9.375
757,1695729857885,-0.38842773,-0.9224243,0.3319702,-11.546875,-4.59375,-2.578125
758,1695729857915,-0.35351562,-0.98394775,0.4076538,-3.75,5.5625,-5.078125
759,1695729857958,-0.34960938,-0.91607666,0.42962646,-3.71875,0.53125,-0.8125
