,timestamp,accel_x,accel_y,accel_z,gyro_x,gyro_y,gyro_z
0,1695726843286,-0.33276367,-0.9573364,0.16986084,-0.90625,1.140625,0.125
1,1695726843343,-0.3256836,-0.9636841,0.16937256,1.046875,-0.015625,0.40625
2,1695726843404,-0.3293457,-0.95513916,0.16351318,-0.65625,0.5625,0.234375
3,1695726843405,-0.34375,-0.96099854,0.17791748,-0.34375,0.875,0.671875
4,1695726843423,-0.3239746,-0.9668579,0.17181396,-0.078125,-0.03125,-0.015625
5,1695726843463,-0.3330078,-0.958313,0.15618896,-0.140625,0.59375,0.125
6,1695726843503,-0.3251953,-0.96173096,0.16693115,-0.296875,0.390625,0.078125
7,1695726843543,-0.3330078,-0.95880127,0.168396,0.359375,-0.125,0.03125
8,1695726843583,-0.33911133,-0.9561157,0.16571045,-0.15625,1.3125,0.40625
9,1695726843623,-0.33325195,-0.9602661,0.15863037,0.171875,0.703125,0.140625
10,1695726843663,-0.3305664,-0.9541626,0.16229248,0.234375,-0.265625,-0.015625
11,1695726843703,-0.34155273,-0.9619751,0.168396,-0.375,0.75,0.21875
12,1695726843764,-0.33129883,-0.9678345,0.15740967,0.828125,0.171875,0.15625
13,1695726843783,-0.328125,-0.96295166,0.15838623,0.09375,-0.5,0.578125
14,1695726843823,-0.3371582,-0.96099854,0.15423584,0.046875,-0.4375,0.21875
15,1695726843864,-0.328125,-0.9607544,0.15838623,-0.859375,1.59375,0.109375
16,1695726843903,-0.33129883,-0.96466064,0.16351318,0.765625,-0.015625,0.328125
17,1695726843943,-0.32958984,-0.96466064,0.1605835,2.328125,-0.5625,0.03125
18,1695726843983,-0.33520508,-0.960022,0.1486206,-0.59375,-0.09375,0.328125
19,1695726844024,-0.33325195,-0.960022,0.15106201,0.5625,0.515625,-0.125
20,1695726844085,-0.32373047,-0.96710205,0.16326904,1.1875,0.1875,0.71875
21,1695726844123,-0.34106445,-0.95977783,0.12884521,1.0625,-0.59375,0.390625
22,1695726844143,-0.32836914,-0.9614868,0.14813232,1.28125,0.703125,0.203125
23,1695726844184,-0.3215332,-0.96417236,0.14202881,1.21875,-0.125,0.578125
24,1695726844225,-0.33447266,-0.96539307,0.1449585,1.6875,-0.96875,0.5
25,1695726844264,-0.3293457,-0.9663696,0.13446045,-0.265625,1.03125,0.390625
26,1695726844305,-0.32861328,-0.9627075,0.14520264,1.25,0.046875,0.46875
27,1695726844344,-0.33032227,-0.9627075,0.13128662,1.625,-1.34375,0.484375
28,1695726844384,-0.33496094,-0.96588135,0.12957764,0.96875,0.046875,0.859375
29,1695726844425,-0.32910156,-0.9614868,0.12200928,1.328125,-1.09375,0.859375
30,1695726844464,-0.32470703,-0.97320557,0.124694824,0.625,-0.390625,0.359375
31,1695726844505,-0.32421875,-0.9668579,0.11956787,-0.375,2.0,0.390625
32,1695726844544,-0.32836914,-0.9536743,0.11956787,-0.171875,0.109375,0.125
33,1695726844584,-0.31591797,-0.9673462,0.12738037,0.21875,0.734375,0.375
34,1695726844624,-0.33129883,-0.9678345,0.12762451,0.78125,-0.21875,0.859375
35,1695726844665,-0.3239746,-0.96710205,0.1239624,0.390625,-0.953125,0.5625
36,1695726844705,-0.32470703,-0.97076416,0.1149292,0.640625,-0.234375,0.390625
37,1695726844726,-0.32495117,-0.9690552,0.11395264,-0.078125,-0.359375,0.296875
38,1695726844765,-0.32373047,-0.9717407,0.11663818,0.921875,-0.234375,0.734375
39,1695726844804,-0.32080078,-0.9614868,0.12982178,0.765625,-0.0625,0.265625
40,1695726844845,-0.32910156,-0.96759033,0.10003662,-1.625,0.0,0.15625
41,1695726844886,-0.32861328,-0.9697876,0.13543701,0.75,1.0625,0.203125
42,1695726844925,-0.32617188,-0.9690552,0.11517334,0.828125,0.546875,1.171875
43,1695726844965,-0.32348633,-0.97003174,0.10369873,-0.3125,2.015625,0.390625
44,1695726845006,-0.32104492,-0.9714966,0.11102295,0.171875,1.3125,0.390625
45,1695726845046,-0.3178711,-0.9612427,0.113220215,-0.53125,1.015625,0.265625
46,1695726845084,-0.31982422,-0.96588135,0.120788574,-0.21875,2.421875,0.640625
47,1695726845125,-0.30981445,-0.96221924,0.105163574,-0.484375,1.0625,-0.015625
48,1695726845165,-0.31884766,-0.9697876,0.11883545,0.40625,1.015625,0.234375
49,1695726845206,-0.32128906,-0.97003174,0.11151123,-0.453125,0.859375,0.03125
50,1695726845264,-0.3269043,-0.96343994,0.117126465,-0.21875,0.484375,0.046875
51,1695726845304,-0.31982422,-0.9663696,0.113220215,-0.375,0.171875,-0.375
52,1695726845328,-0.31933594,-0.9727173,0.105651855,-0.09375,0.765625,-0.1875
53,1695726845365,-0.31835938,-0.97198486,0.109802246,-0.4375,0.171875,-0.078125
54,1695726845403,-0.32006836,-0.96954346,0.11834717,-0.375,1.234375,-0.265625
55,1695726845444,-0.32495117,-0.9612427,0.11126709,-0.140625,1.03125,-0.109375
56,1695726845485,-0.32299805,-0.9714966,0.10809326,0.015625,0.34375,0.078125
57,1695726845526,-0.31518555,-0.9631958,0.11151123,-0.484375,0.921875,0.1875
58,1695726845565,-0.32714844,-0.9649048,0.11102295,-0.4375,0.484375,0.0
59,1695726845606,-0.3244629,-0.9631958,0.11077881,-0.59375,1.5625,-0.109375
60,1695726845645,-0.32617188,-0.97784424,0.11663818,-0.265625,1.5,0.5
61,1695726845685,-0.32006836,-0.9624634,0.11639404,-1.046875,1.15625,-0.03125
62,1695726845728,-0.32055664,-0.9710083,0.101745605,-0.9375,1.453125,0.09375
63,1695726845765,-0.32226562,-0.9714966,0.11981201,-3.265625,1.8125,-0.40625
64,1695726845806,-0.32373047,-0.96954346,0.13079834,0.109375,2.578125,0.5625
65,1695726845845,-0.31982422,-0.96539307,0.11419678,-1.203125,1.53125,0.140625
66,1695726845885,-0.31567383,-0.9663696,0.12615967,-2.21875,2.234375,-0.421875
67,1695726845944,-0.32128906,-0.9776001,0.12957764,-1.6875,1.890625,-0.078125
68,1695726845965,-0.31567383,-0.96466064,0.13397217,-1.34375,1.484375,0.078125
69,1695726846025,-0.31762695,-0.96051025,0.13665771,-0.296875,1.046875,0.1875
70,1695726846028,-0.3227539,-0.9607544,0.11834717,-1.578125,0.96875,-0.375
71,1695726846065,-0.3334961,-0.97491455,0.137146,-0.453125,1.78125,0.03125
72,1695726846105,-0.31201172,-0.96588135,0.12640381,-1.421875,2.40625,0.078125
73,1695726846149,-0.31469727,-0.9751587,0.13568115,-0.734375,2.5625,-0.015625
74,1695726846184,-0.32788086,-0.96710205,0.13397217,-0.421875,2.65625,0.203125
75,1695726846225,-0.3269043,-0.9649048,0.13763428,0.625,2.28125,0.578125
76,1695726846264,-0.31640625,-0.9663696,0.1293335,0.390625,1.609375,0.40625
77,1695726846304,-0.3173828,-0.9717407,0.14349365,-0.8125,1.734375,0.25
78,1695726846345,-0.32373047,-0.9644165,0.13446045,0.171875,1.5625,-0.015625
79,1695726846384,-0.31420898,-0.9636841,0.12322998,-0.140625,-0.140625,0.0
80,1695726846426,-0.31640625,-0.972229,0.14129639,0.0,0.984375,0.1875
81,1695726846464,-0.32714844,-0.9668579,0.12786865,-0.359375,1.03125,-0.015625
82,1695726846504,-0.3269043,-0.97052,0.11859131,-0.5,-0.09375,-0.03125
83,1695726846565,-0.3215332,-0.9685669,0.13665771,-0.8125,1.078125,-0.140625
84,1695726846584,-0.31689453,-0.96661377,0.12884521,-0.921875,1.09375,0.015625
85,1695726846631,-0.31933594,-0.9714966,0.13690186,1.3125,-0.234375,0.078125
86,1695726846665,-0.3203125,-0.96588135,0.11859131,-1.859375,1.125,0.0
87,1695726846704,-0.32128906,-0.9668579,0.13861084,-1.578125,2.25,-0.34375
88,1695726846744,-0.32006836,-0.9661255,0.14007568,0.453125,1.15625,0.25
89,1695726846784,-0.31762695,-0.96417236,0.13275146,-0.375,1.6875,-0.265625
90,1695726846826,-0.31884766,-0.9624634,0.13690186,-0.828125,1.4375,-0.140625
91,1695726846864,-0.32177734,-0.9729614,0.12835693,-0.421875,0.484375,-0.03125
92,1695726846904,-0.32739258,-0.96710205,0.13885498,0.34375,0.890625,0.328125
93,1695726846945,-0.32006836,-0.9680786,0.12542725,-0.984375,0.96875,0.140625
94,1695726847005,-0.3269043,-0.9714966,0.13885498,-0.015625,0.75,0.0
95,1695726847024,-0.31762695,-0.96759033,0.1281128,-0.0625,1.203125,0.15625
96,1695726847064,-0.32055664,-0.9702759,0.13641357,-0.5625,0.9375,0.15625
97,1695726847105,-0.32055664,-0.9702759,0.13372803,-0.296875,0.234375,0.09375
98,1695726847144,-0.32348633,-0.97076416,0.13885498,-0.609375,1.609375,-0.171875
99,1695726847184,-0.32299805,-0.9680786,0.13348389,-0.609375,1.15625,0.140625
100,1695726847225,-0.31860352,-0.9649048,0.12884521,-0.28125,-0.046875,-0.21875
101,1695726847264,-0.32348633,-0.9656372,0.13885498,-0.828125,1.15625,0.03125
102,1695726847305,-0.3232422,-0.9590454,0.137146,-0.609375,0.5625,-0.296875
103,1695726847325,-0.33813477,-0.9678345,0.1329956,-1.1875,-0.0625,-0.109375
104,1695726847364,-0.32641602,-0.9656372,0.13372803,-0.6875,0.203125,-0.265625
105,1695726847405,-0.32421875,-0.9649048,0.12713623,0.421875,-0.21875,-0.09375
106,1695726847445,-0.328125,-0.96710205,0.12591553,0.328125,-0.3125,0.09375
107,1695726847485,-0.3256836,-0.95977783,0.13494873,-0.296875,0.78125,0.015625
108,1695726847525,-0.32958984,-0.96954346,0.1239624,0.359375,-0.40625,0.109375
109,1695726847567,-0.3251953,-0.9602661,0.13934326,0.59375,0.5625,0.21875
110,1695726847604,-0.31958008,-0.96539307,0.12591553,1.09375,0.375,0.03125
111,1695726847643,-0.3305664,-0.9631958,0.121276855,-1.53125,0.421875,-0.28125
112,1695726847683,-0.32910156,-0.9690552,0.1408081,0.71875,1.703125,0.65625
113,1695726847725,-0.3203125,-0.9614868,0.11419678,1.046875,-0.140625,0.28125
114,1695726847763,-0.32495117,-0.9717407,0.124694824,-0.046875,0.125,-0.28125
115,1695726847804,-0.31640625,-0.972229,0.13104248,0.671875,0.78125,0.125
116,1695726847844,-0.3227539,-0.96759033,0.11907959,1.515625,-0.625,0.453125
117,1695726847883,-0.32617188,-0.96954346,0.12322998,0.515625,-0.0625,0.140625
118,1695726847924,-0.32299805,-0.9651489,0.121032715,1.1875,0.28125,-0.078125
119,1695726847963,-0.33081055,-0.96466064,0.11126709,1.5,-0.734375,0.140625
120,1695726848004,-0.32006836,-0.9631958,0.11224365,1.03125,-1.203125,0.296875
121,1695726848043,-0.3173828,-0.97076416,0.11077881,1.140625,-0.4375,0.1875
122,1695726848083,-0.33032227,-0.96832275,0.10394287,1.578125,-0.65625,0.5
123,1695726848125,-0.3161621,-0.96832275,0.10272217,1.03125,0.234375,0.4375
124,1695726848163,-0.31982422,-0.96588135,0.105163574,0.53125,0.734375,0.34375
125,1695726848203,-0.31884766,-0.9661255,0.09710693,0.765625,-0.03125,0.28125
126,1695726848244,-0.3173828,-0.9680786,0.09686279,0.578125,0.0625,0.453125
127,1695726848283,-0.32250977,-0.9678345,0.1005249,0.3125,0.28125,0.34375
128,1695726848325,-0.3227539,-0.9685669,0.0927124,-0.46875,0.453125,0.15625
129,1695726848363,-0.32128906,-0.9663696,0.101745605,-0.46875,0.421875,-0.0625
130,1695726848405,-0.3178711,-0.9751587,0.08660889,-0.453125,0.21875,0.015625
131,1695726848447,-0.32006836,-0.9690552,0.10443115,-1.1875,1.109375,-0.015625
132,1695726848484,-0.32788086,-0.9627075,0.10784912,-0.375,1.015625,0.21875
133,1695726848524,-0.32470703,-0.9673462,0.093933105,-0.234375,0.3125,0.515625
134,1695726848565,-0.32055664,-0.9690552,0.09173584,-3.875,1.265625,-0.390625
135,1695726848608,-0.3269043,-0.9714966,0.11932373,-0.671875,1.734375,0.359375
136,1695726848625,-0.31347656,-0.9619751,0.09466553,-0.921875,1.15625,0.578125
137,1695726848665,-0.31933594,-0.9727173,0.09979248,-1.328125,0.890625,-0.03125
138,1695726848704,-0.31884766,-0.96832275,0.113464355,-0.09375,1.6875,0.03125
139,1695726848744,-0.32592773,-0.9651489,0.109558105,-0.265625,1.078125,0.03125
140,1695726848786,-0.31811523,-0.96588135,0.1005249,0.140625,0.765625,0.21875
141,1695726848825,-0.31884766,-0.9649048,0.101257324,-1.265625,1.15625,-0.28125
142,1695726848864,-0.3256836,-0.9690552,0.1149292,-0.09375,1.046875,0.25
143,1695726848907,-0.32104492,-0.9649048,0.09954834,-0.625,0.609375,0.125
144,1695726848944,-0.32226562,-0.9631958,0.10882568,-0.515625,1.390625,-0.078125
145,1695726848984,-0.3239746,-0.9624634,0.109802246,-0.8125,1.0,0.015625
146,1695726849030,-0.3244629,-0.96759033,0.10491943,-0.578125,1.328125,0.125
147,1695726849064,-0.32592773,-0.9697876,0.109313965,-0.5625,1.5625,0.09375
148,1695726849106,-0.31958008,-0.96588135,0.113464355,-0.921875,1.171875,-0.078125
149,1695726849144,-0.3251953,-0.9627075,0.10394287,-0.828125,1.421875,-0.09375
150,1695726849186,-0.32592773,-0.9607544,0.11419678,-1.609375,1.921875,0.046875
151,1695726849223,-0.3161621,-0.97076416,0.11102295,-2.234375,2.171875,-0.078125
152,1695726849264,-0.3244629,-0.9685669,0.11468506,-1.828125,2.15625,-0.25
153,1695726849306,-0.32763672,-0.96343994,0.13226318,-1.390625,2.8125,-0.25
154,1695726849343,-0.33422852,-0.97003174,0.116882324,-2.75,1.453125,0.03125
155,1695726849410,-0.32983398,-0.96881104,0.12420654,-1.828125,1.4375,0.078125
156,1695726849424,-0.3347168,-0.9668579,0.1486206,-0.796875,1.859375,-0.28125
157,1695726849464,-0.32763672,-0.9602661,0.116882324,-1.34375,1.03125,0.015625
158,1695726849505,-0.328125,-0.9656372,0.124694824,-3.4375,1.9375,-0.96875
159,1695726849544,-0.3269043,-0.9636841,0.15301514,-1.84375,2.328125,0.15625
160,1695726849585,-0.32617188,-0.9612427,0.12982178,-1.0,-0.25,-0.171875
161,1695726849625,-0.33276367,-0.9602661,0.124694824,-1.53125,0.0625,-0.796875
162,1695726849664,-0.3232422,-0.9663696,0.1395874,-1.828125,2.125,-0.25
163,1695726849706,-0.32836914,-0.9619751,0.1437378,-0.625,1.578125,0.15625
164,1695726849744,-0.328125,-0.9558716,0.13934326,-1.140625,0.203125,0.09375
165,1695726849784,-0.33374023,-0.96295166,0.14349365,-1.515625,1.359375,-0.390625
166,1695726849825,-0.33374023,-0.9602661,0.14886475,-0.328125,1.75,0.265625
167,1695726849864,-0.33520508,-0.9649048,0.14105225,-0.625,0.578125,0.015625
168,1695726849925,-0.32885742,-0.9607544,0.14837646,-1.28125,1.484375,0.0625
169,1695726849965,-0.33129883,-0.96099854,0.14447021,-0.140625,1.90625,-0.078125
170,1695726849967,-0.3269043,-0.9639282,0.14398193,-0.65625,1.0625,0.125
171,1695726850024,-0.32714844,-0.9612427,0.14349365,-0.890625,0.65625,0.015625
172,1695726850044,-0.32250977,-0.9631958,0.14935303,-0.15625,1.453125,-0.015625
173,1695726850085,-0.3269043,-0.96881104,0.15228271,-0.359375,1.15625,0.171875
174,1695726850125,-0.32666016,-0.9649048,0.15106201,-0.53125,0.625,0.0625
175,1695726850165,-0.33081055,-0.96099854,0.14788818,-0.75,0.921875,0.078125
176,1695726850225,-0.32763672,-0.96588135,0.14422607,-0.734375,0.609375,-0.03125
177,1695726850244,-0.3317871,-0.9595337,0.14910889,-0.078125,1.09375,-0.015625
178,1695726850285,-0.32739258,-0.96710205,0.15081787,-0.5625,0.859375,0.375
179,1695726850325,-0.32470703,-0.9619751,0.15032959,-1.265625,0.953125,0.109375
180,1695726850364,-0.32885742,-0.9656372,0.16082764,1.671875,1.015625,0.15625
181,1695726850406,-0.32861328,-0.95635986,0.13641357,-1.984375,0.96875,-0.078125
182,1695726850446,-0.33276367,-0.9673462,0.15081787,-1.890625,3.078125,-0.078125
183,1695726850484,-0.3305664,-0.96099854,0.15179443,-0.1875,1.1875,0.46875
184,1695726850526,-0.32470703,-0.96051025,0.1461792,-0.796875,0.640625,0.0625
185,1695726850567,-0.3203125,-0.9680786,0.15545654,-0.328125,1.171875,-0.1875
186,1695726850610,-0.33569336,-0.97125244,0.16082764,1.203125,1.03125,0.109375
187,1695726850645,-0.32421875,-0.95318604,0.14349365,0.09375,-1.359375,0.625
188,1695726850685,-0.32714844,-0.9624634,0.13763428,-0.953125,0.140625,-0.296875
189,1695726850729,-0.33276367,-0.9631958,0.15985107,0.515625,1.125,0.09375
190,1695726850764,-0.33447266,-0.9639282,0.14105225,-0.0625,0.1875,0.5
191,1695726850807,-0.32250977,-0.9624634,0.14886475,-0.703125,0.8125,0.109375
192,1695726850847,-0.32910156,-0.9570923,0.14666748,-0.40625,1.546875,-0.078125
193,1695726850885,-0.33325195,-0.9690552,0.14691162,-0.65625,0.84375,0.1875
194,1695726850944,-0.3203125,-0.96295166,0.14910889,-0.375,1.328125,-0.015625
195,1695726850965,-0.3215332,-0.96417236,0.14788818,-0.171875,0.875,-0.15625
196,1695726851005,-0.33422852,-0.9685669,0.152771,-0.328125,0.875,0.09375
197,1695726851046,-0.3269043,-0.9673462,0.15301514,-0.15625,0.90625,0.140625
198,1695726851086,-0.32543945,-0.9585571,0.14886475,-0.75,0.875,0.140625
199,1695726851126,-0.3317871,-0.960022,0.15374756,-0.609375,0.875,0.21875
200,1695726851185,-0.33276367,-0.96539307,0.13812256,-0.828125,1.78125,0.390625
201,1695726851246,-0.32348633,-0.96295166,0.14764404,-1.71875,1.265625,0.421875
202,1695726851250,-0.32250977,-0.9661255,0.168396,2.03125,1.125,0.03125
203,1695726851264,-0.33032227,-0.9561157,0.1329956,-1.453125,0.4375,-0.078125
204,1695726851305,-0.32983398,-0.9612427,0.15008545,-1.65625,1.75,-0.890625
205,1695726851344,-0.3330078,-0.9673462,0.16473389,0.09375,1.609375,0.359375
206,1695726851393,-0.32958984,-0.9692993,0.14788818,0.1875,-0.203125,0.0625
207,1695726851425,-0.32983398,-0.9668579,0.15618896,-0.78125,0.578125,-0.28125
208,1695726851464,-0.3293457,-0.97076416,0.16278076,-0.078125,1.46875,0.328125
209,1695726851504,-0.33007812,-0.9546509,0.13934326,1.203125,-0.59375,0.46875
210,1695726851544,-0.32836914,-0.9612427,0.14276123,0.4375,-0.390625,-0.140625
211,1695726851583,-0.3232422,-0.96661377,0.16107178,0.984375,0.484375,-0.109375
212,1695726851624,-0.33081055,-0.9624634,0.13861084,-0.078125,0.265625,-0.046875
213,1695726851664,-0.32006836,-0.96417236,0.14910889,-0.3125,2.546875,-0.53125
214,1695726851705,-0.3322754,-0.9607544,0.15081787,1.0625,-0.296875,0.09375
215,1695726851745,-0.32177734,-0.96051025,0.14154053,1.546875,0.296875,0.234375
216,1695726851784,-0.33154297,-0.96099854,0.14935303,1.484375,1.8125,0.1875
217,1695726851825,-0.33374023,-0.96221924,0.13568115,2.21875,-0.6875,0.46875
218,1695726851864,-0.32006836,-0.96221924,0.13128662,1.765625,-0.578125,0.546875
219,1695726851948,-0.32666016,-0.9685669,0.14251709,2.234375,0.359375,0.5625
220,1695726851952,-0.33276367,-0.9636841,0.11859131,1.890625,-0.5625,0.203125
221,1695726851983,-0.3215332,-0.97442627,0.11883545,1.53125,-0.828125,0.390625
222,1695726852024,-0.31347656,-0.9595337,0.13372803,2.984375,0.0,0.265625
223,1695726852064,-0.33154297,-0.9702759,0.10272217,1.609375,-0.953125,0.53125
224,1695726852105,-0.3388672,-0.975647,0.117370605,-1.34375,0.734375,-0.125
225,1695726852145,-0.33642578,-0.96954346,0.12762451,1.9375,1.203125,1.109375
226,1695726852184,-0.31713867,-0.9585571,0.09832764,-0.21875,-0.78125,0.5625
227,1695726852226,-0.32543945,-0.9697876,0.10687256,-1.40625,-0.109375,0.125
228,1695726852267,-0.32250977,-0.96466064,0.11785889,0.28125,0.921875,0.65625
229,1695726852306,-0.31933594,-0.97369385,0.11468506,0.03125,-0.078125,0.625
230,1695726852344,-0.3173828,-0.9668579,0.101745605,-0.59375,0.5,0.0
231,1695726852385,-0.32885742,-0.97198486,0.11932373,0.125,0.03125,0.25
232,1695726852425,-0.32299805,-0.9636841,0.11273193,-0.09375,0.265625,0.078125
233,1695726852463,-0.33251953,-0.9644165,0.105407715,-0.453125,0.453125,0.4375
234,1695726852503,-0.32617188,-0.9751587,0.11126709,-0.484375,0.1875,0.46875
235,1695726852544,-0.3190918,-0.9710083,0.116882324,-0.421875,1.09375,0.359375
236,1695726852565,-0.31982422,-0.96954346,0.10321045,-0.28125,0.40625,0.3125
237,1695726852606,-0.31225586,-0.97076416,0.1149292,-0.359375,1.359375,0.28125
238,1695726852647,-0.31811523,-0.97662354,0.117126465,-0.359375,2.328125,0.4375
239,1695726852684,-0.31982422,-0.96954346,0.11077881,-0.109375,1.890625,0.546875
240,1695726852724,-0.31445312,-0.9612427,0.109069824,-0.875,2.015625,0.5625
241,1695726852766,-0.31933594,-0.9607544,0.11126709,-1.609375,1.375,-0.078125
242,1695726852805,-0.3239746,-0.96759033,0.117126465,0.734375,0.9375,-0.078125
243,1695726852846,-0.3239746,-0.9668579,0.09466553,-1.609375,0.40625,-0.09375
244,1695726852887,-0.33251953,-0.98223877,0.13006592,0.703125,0.90625,0.265625
245,1695726852945,-0.3125,-0.9631958,0.10272217,-0.796875,1.109375,0.40625
246,1695726852965,-0.31225586,-0.9673462,0.10394287,-1.78125,0.0625,-0.390625
247,1695726853005,-0.31958008,-0.97320557,0.12005615,-0.484375,0.6875,-0.375
248,1695726853045,-0.33081055,-0.97076416,0.11248779,0.03125,0.6875,0.3125
249,1695726853088,-0.32080078,-0.9636841,0.10272217,-0.765625,-0.15625,-0.3125
250,1695726853125,-0.32299805,-0.9668579,0.117614746,-1.21875,0.125,-0.609375
251,1695726853165,-0.3293457,-0.9636841,0.121032715,-0.765625,0.390625,-0.265625
252,1695726853207,-0.3215332,-0.9680786,0.11151123,-1.03125,0.8125,-0.390625
253,1695726853246,-0.32373047,-0.9668579,0.12640381,-1.265625,1.3125,-0.1875
254,1695726853285,-0.3256836,-0.9717407,0.12591553,-1.671875,1.96875,-0.0625
255,1695726853326,-0.32250977,-0.96539307,0.12054443,-0.796875,1.53125,0.15625
256,1695726853366,-0.3215332,-0.96710205,0.11248779,-2.15625,1.1875,-0.03125
257,1695726853406,-0.32202148,-0.9656372,0.12176514,-1.515625,1.78125,0.03125
258,1695726853445,-0.3251953,-0.95758057,0.12689209,-1.546875,1.375,-0.09375
259,1695726853485,-0.33081055,-0.97003174,0.13397217,-1.828125,1.890625,-0.109375
260,1695726853527,-0.3203125,-0.96051025,0.13006592,-1.515625,1.46875,0.109375
261,1695726853564,-0.3203125,-0.97076416,0.13153076,-1.75,1.65625,0.109375
262,1695726853605,-0.31884766,-0.95684814,0.13250732,-2.453125,1.71875,-0.140625
263,1695726853644,-0.32373047,-0.9678345,0.14007568,-0.109375,1.25,-0.015625
264,1695726853684,-0.32836914,-0.9595337,0.13104248,-4.0625,0.6875,-0.890625
265,1695726853744,-0.33618164,-0.9690552,0.15496826,-2.359375,2.078125,-0.140625
266,1695726853763,-0.32617188,-0.95928955,0.13616943,-2.140625,1.0,-0.328125
267,1695726853805,-0.32641602,-0.9590454,0.13763428,-2.515625,0.21875,-0.765625
268,1695726853845,-0.32421875,-0.97003174,0.15985107,-1.703125,1.140625,-0.625
269,1695726853864,-0.33496094,-0.96173096,0.15179443,-0.9375,0.78125,-0.28125
270,1695726853904,-0.32299805,-0.9631958,0.14666748,-0.953125,1.234375,-0.0625
271,1695726853944,-0.33325195,-0.9607544,0.15203857,-1.984375,0.96875,-0.578125
272,1695726853984,-0.32763672,-0.9668579,0.1539917,-1.265625,1.4375,-0.328125
273,1695726854024,-0.32714844,-0.96295166,0.15814209,-1.15625,1.78125,-0.34375
274,1695726854064,-0.33618164,-0.96051025,0.15740967,-1.546875,1.25,0.109375
275,1695726854124,-0.33496094,-0.9612427,0.15789795,-1.296875,2.234375,0.125
276,1695726854143,-0.33154297,-0.9656372,0.1593628,-1.34375,1.90625,0.078125
277,1695726854183,-0.33398438,-0.9607544,0.16204834,-1.984375,1.328125,0.078125
278,1695726854223,-0.32177734,-0.9649048,0.16204834,-2.015625,1.21875,0.03125
279,1695726854264,-0.328125,-0.9590454,0.16986084,-1.6875,1.265625,-0.03125
280,1695726854304,-0.33129883,-0.96661377,0.17352295,-1.59375,1.171875,-0.21875
281,1695726854346,-0.33276367,-0.95806885,0.17401123,-1.21875,1.359375,-0.03125
282,1695726854384,-0.34277344,-0.9561157,0.16864014,-1.796875,1.78125,0.015625
283,1695726854445,-0.33203125,-0.96759033,0.17327881,-1.375,1.3125,0.0625
284,1695726854464,-0.33081055,-0.96099854,0.19281006,-0.34375,0.53125,0.109375
285,1695726854505,-0.3347168,-0.9590454,0.16522217,-1.359375,0.578125,0.109375
286,1695726854544,-0.33032227,-0.958313,0.17352295,-3.484375,1.71875,-0.828125
287,1695726854585,-0.33764648,-0.9661255,0.19036865,-0.25,2.390625,0.515625
288,1695726854624,-0.33032227,-0.95635986,0.17596436,-0.015625,0.390625,0.21875
289,1695726854664,-0.3293457,-0.960022,0.18475342,-1.40625,1.328125,-0.546875
290,1695726854704,-0.3347168,-0.9553833,0.18450928,-0.546875,1.421875,0.046875
291,1695726854744,-0.33251953,-0.95318604,0.18035889,0.09375,-0.171875,0.40625
292,1695726854786,-0.3310547,-0.96343994,0.17401123,-1.84375,-0.6875,0.21875
293,1695726854824,-0.33154297,-0.96173096,0.18743896,-1.09375,0.5625,-0.171875
294,1695726854864,-0.34277344,-0.9651489,0.1852417,-0.125,1.484375,0.1875
295,1695726854906,-0.328125,-0.95684814,0.184021,-0.609375,1.046875,0.34375
296,1695726854945,-0.32983398,-0.96099854,0.17816162,-0.796875,1.234375,-0.0625
297,1695726854985,-0.33862305,-0.95977783,0.18548584,-0.4375,1.21875,-0.03125
298,1695726855024,-0.33251953,-0.9614868,0.19012451,-0.4375,1.390625,0.28125
299,1695726855064,-0.33422852,-0.9590454,0.1930542,-0.609375,1.3125,-0.0625
300,1695726855105,-0.33911133,-0.9590454,0.18792725,-0.734375,0.90625,-0.015625
301,1695726855164,-0.33618164,-0.95758057,0.19866943,-0.390625,1.078125,-0.15625
302,1695726855184,-0.3383789,-0.95318604,0.18426514,-0.3125,1.1875,0.078125
303,1695726855206,-0.3317871,-0.9546509,0.18035889,-0.515625,1.265625,0.125
304,1695726855289,-0.33691406,-0.95880127,0.18670654,0.03125,1.296875,0.0625
305,1695726855293,-0.33862305,-0.9585571,0.19256592,-0.515625,1.015625,0.0625
306,1695726855345,-0.3310547,-0.9500122,0.18719482,-1.15625,2.109375,0.015625
307,1695726855365,-0.33740234,-0.9561157,0.1942749,3.328125,1.234375,-0.015625
308,1695726855408,-0.3330078,-0.95025635,0.16326904,-0.53125,-0.578125,0.078125
309,1695726855445,-0.33569336,-0.96295166,0.19989014,-0.703125,2.78125,-0.171875
310,1695726855486,-0.33813477,-0.9495239,0.1906128,2.3125,0.8125,0.578125
311,1695726855525,-0.33618164,-0.95880127,0.17669678,1.609375,-1.046875,-0.046875
312,1695726855567,-0.32885742,-0.9714966,0.1774292,-0.171875,0.109375,0.296875
313,1695726855606,-0.33154297,-0.9685669,0.18133545,1.28125,1.0625,0.453125
314,1695726855645,-0.33203125,-0.95635986,0.1630249,1.8125,-0.578125,0.640625
315,1695726855685,-0.3256836,-0.95880127,0.1762085,1.421875,0.6875,0.28125
316,1695726855725,-0.34570312,-0.96588135,0.1786499,2.40625,0.640625,0.296875
317,1695726855766,-0.3383789,-0.958313,0.16009521,1.703125,-0.421875,0.28125
318,1695726855823,-0.32763672,-0.9624634,0.152771,0.9375,-0.28125,0.625
319,1695726855844,-0.32861328,-0.9578247,0.15789795,1.40625,0.296875,0.171875
320,1695726855884,-0.33764648,-0.9663696,0.15447998,1.875,0.421875,0.453125
321,1695726855924,-0.32495117,-0.96221924,0.15765381,1.609375,0.171875,0.515625
322,1695726855964,-0.32885742,-0.96881104,0.152771,2.015625,-0.484375,0.40625
323,1695726856007,-0.33203125,-0.9685669,0.14569092,1.34375,0.359375,0.234375
324,1695726856045,-0.3232422,-0.9690552,0.14105225,1.375,0.0,0.546875
325,1695726856085,-0.32177734,-0.9639282,0.14715576,1.15625,0.328125,0.21875
326,1695726856125,-0.33007812,-0.9627075,0.14276123,1.328125,-0.0625,0.328125
327,1695726856165,-0.3293457,-0.95977783,0.13031006,1.984375,-0.375,0.515625
328,1695726856206,-0.32299805,-0.9602661,0.13323975,0.703125,0.296875,0.375
329,1695726856246,-0.33129883,-0.96539307,0.13348389,0.25,0.28125,0.703125
330,1695726856287,-0.32641602,-0.9636841,0.1359253,2.171875,0.453125,0.203125
331,1695726856325,-0.3232422,-0.9636841,0.11566162,-0.859375,0.4375,0.34375
332,1695726856365,-0.328125,-0.9668579,0.13909912,-0.140625,1.03125,0.21875
333,1695726856405,-0.32055664,-0.9661255,0.120788574,0.71875,0.828125,1.0625
334,1695726856464,-0.32885742,-0.9614868,0.11956787,-1.53125,-0.0625,-0.296875
335,1695726856488,-0.32104492,-0.97491455,0.13470459,-1.65625,1.046875,-0.390625
336,1695726856504,-0.32348633,-0.9639282,0.13494873,-0.625,1.09375,-0.03125
337,1695726856543,-0.31982422,-0.96954346,0.13763428,-1.28125,1.4375,-0.046875
338,1695726856585,-0.3256836,-0.96051025,0.121520996,-1.734375,0.953125,-0.46875
339,1695726856624,-0.3310547,-0.97076416,0.14202881,-1.265625,0.859375,0.109375
340,1695726856664,-0.32836914,-0.9649048,0.13397217,-1.109375,1.203125,-0.109375
341,1695726856705,-0.32739258,-0.9663696,0.14227295,-1.515625,1.0,-0.28125
342,1695726856744,-0.32543945,-0.960022,0.13372803,-1.4375,0.78125,-0.234375
343,1695726856785,-0.33251953,-0.96417236,0.137146,-0.46875,0.953125,-0.125
344,1695726856825,-0.3293457,-0.96710205,0.14324951,-1.078125,1.171875,-0.09375
345,1695726856865,-0.3256836,-0.9663696,0.14520264,-1.4375,1.453125,-0.1875
346,1695726856905,-0.32299805,-0.9651489,0.14227295,-2.390625,1.53125,-0.21875
347,1695726856945,-0.32592773,-0.9678345,0.15032959,-1.84375,1.75,-0.21875
348,1695726856985,-0.32861328,-0.9651489,0.14837646,-1.84375,1.75,-0.265625
349,1695726857024,-0.32836914,-0.96466064,0.15374756,-1.359375,2.359375,-0.359375
350,1695726857064,-0.34057617,-0.95758057,0.15179443,-2.046875,2.125,-0.015625
351,1695726857126,-0.3317871,-0.9636841,0.15838623,-1.96875,1.875,-0.109375
352,1695726857143,-0.32910156,-0.9627075,0.15203857,-2.96875,2.359375,-0.46875
353,1695726857183,-0.33789062,-0.9649048,0.15887451,-2.625,1.703125,-0.046875
354,1695726857271,-0.33007812,-0.9602661,0.17303467,0.078125,1.21875,-0.109375
355,1695726857285,-0.33447266,-0.9717407,0.14422607,-3.71875,4.46875,-0.078125
356,1695726857304,-0.3305664,-0.94415283,0.18206787,-3.765625,6.625,-1.5625
357,1695726857365,-0.35131836,-0.9673462,0.18841553,-0.453125,3.703125,0.84375
358,1695726857384,-0.32763672,-0.9649048,0.17669678,-0.421875,1.0625,0.609375
359,1695726857425,-0.3251953,-0.9619751,0.17694092,-1.171875,2.609375,-0.828125
360,1695726857464,-0.33740234,-0.95928955,0.18939209,-0.5,2.515625,-0.0625
361,1695726857504,-0.33642578,-0.95928955,0.18426514,-0.203125,0.875,0.921875
362,1695726857544,-0.31884766,-0.958313,0.17718506,-0.484375,0.515625,-0.203125
363,1695726857585,-0.33251953,-0.96221924,0.18328857,0.84375,1.21875,-0.21875
364,1695726857624,-0.3395996,-0.95977783,0.18475342,-0.1875,1.84375,0.4375
365,1695726857664,-0.32617188,-0.9558716,0.17913818,0.15625,1.015625,0.15625
366,1695726857705,-0.32714844,-0.9573364,0.17840576,0.0,-0.21875,0.140625
367,1695726857764,-0.3305664,-0.97320557,0.1774292,-0.171875,0.40625,0.046875
368,1695726857783,-0.33154297,-0.95928955,0.17449951,0.28125,1.609375,0.3125
369,1695726857805,-0.33374023,-0.9595337,0.18157959,0.21875,1.609375,0.15625
370,1695726857846,-0.3334961,-0.96295166,0.17718506,-0.21875,0.46875,0.328125
371,1695726857886,-0.3334961,-0.95684814,0.17156982,-0.9375,0.359375,0.421875
372,1695726857924,-0.32226562,-0.9710083,0.18377686,-0.515625,1.15625,0.0
373,1695726857967,-0.33398438,-0.95880127,0.17889404,-1.4375,1.53125,-0.109375
374,1695726858004,-0.3359375,-0.95635986,0.17791748,-0.875,1.25,0.203125
375,1695726858065,-0.32958984,-0.9612427,0.17889404,0.265625,1.828125,0.453125
376,1695726858084,-0.32958984,-0.9507446,0.1798706,-0.5,1.859375,0.3125
377,1695726858124,-0.33569336,-0.96343994,0.18109131,-1.21875,1.484375,0.34375
378,1695726858166,-0.32763672,-0.96051025,0.19622803,0.578125,1.625,0.09375
379,1695726858205,-0.33032227,-0.9644165,0.17352295,-0.765625,1.09375,0.421875
380,1695726858246,-0.32641602,-0.9553833,0.17230225,-2.515625,1.53125,-0.234375
381,1695726858304,-0.33129883,-0.96588135,0.19720459,-0.234375,2.5,0.734375
382,1695726858325,-0.32788086,-0.9561157,0.17889404,-0.703125,2.0,0.609375
383,1695726858365,-0.33422852,-0.9636841,0.18231201,-0.90625,0.78125,-0.703125
384,1695726858406,-0.3317871,-0.96661377,0.1828003,-0.625,0.90625,0.125
385,1695726858446,-0.32885742,-0.9639282,0.19158936,-0.203125,1.265625,0.59375
386,1695726858505,-0.32348633,-0.958313,0.17718506,-0.671875,1.234375,-0.3125
387,1695726858525,-0.3330078,-0.96099854,0.19134521,-1.171875,1.78125,-0.125
388,1695726858564,-0.3244629,-0.9631958,0.1918335,-0.203125,1.125,0.015625
389,1695726858624,-0.32128906,-0.9656372,0.18670654,0.171875,0.5625,0.265625
390,1695726858647,-0.33129883,-0.96343994,0.19134521,0.640625,0.4375,0.140625
391,1695726858684,-0.3371582,-0.95928955,0.19403076,0.53125,-0.140625,0.5625
392,1695726858726,-0.32617188,-0.95977783,0.17791748,-0.1875,0.734375,0.828125
393,1695726858766,-0.32861328,-0.95880127,0.1749878,0.6875,1.15625,0.28125
394,1695726858806,-0.3232422,-0.9602661,0.18475342,1.03125,-0.078125,0.09375
395,1695726858846,-0.328125,-0.96881104,0.17962646,1.609375,-0.40625,0.265625
396,1695726858885,-0.3227539,-0.9639282,0.16595459,0.890625,-2.125,-0.0625
397,1695726858926,-0.32421875,-0.9602661,0.17596436,2.15625,-0.796875,0.03125
398,1695726858964,-0.33374023,-0.96099854,0.17181396,1.75,-1.8125,-0.53125
399,1695726859005,-0.33642578,-0.9607544,0.1630249,0.53125,-0.796875,-0.109375
400,1695726859048,-0.3310547,-0.9663696,0.14959717,1.328125,-0.109375,0.625
401,1695726859084,-0.3239746,-0.9607544,0.15545654,0.421875,0.03125,0.421875
402,1695726859103,-0.32958984,-0.95635986,0.16937256,-0.046875,-0.328125,-0.25
403,1695726859146,-0.3425293,-0.9729614,0.15765381,3.0625,-0.671875,0.203125
404,1695726859185,-0.32910156,-0.9541626,0.14105225,-1.421875,-1.984375,-0.296875
405,1695726859225,-0.3317871,-0.9678345,0.1708374,2.0,0.8125,0.125
406,1695726859285,-0.33862305,-0.96221924,0.14886475,2.234375,-0.234375,0.65625
407,1695726859304,-0.3244629,-0.95977783,0.14398193,0.125,-0.609375,-0.03125
408,1695726859346,-0.33325195,-0.9829712,0.17352295,0.65625,1.921875,0.109375
409,1695726859384,-0.34326172,-0.96099854,0.15740967,0.21875,1.484375,0.46875
410,1695726859425,-0.32373047,-0.94244385,0.12225342,-1.59375,0.328125,0.640625
411,1695726859465,-0.3083496,-0.9612427,0.13934326,-0.375,1.0625,0.21875
412,1695726859504,-0.3334961,-0.96661377,0.1449585,0.546875,0.90625,-0.328125
413,1695726859544,-0.33374023,-0.95880127,0.14031982,0.5625,-0.15625,-0.109375
414,1695726859584,-0.32788086,-0.9663696,0.14788818,0.546875,0.515625,-0.21875
415,1695726859624,-0.3310547,-0.9668579,0.1395874,0.390625,-0.625,-0.078125
416,1695726859665,-0.33032227,-0.9636841,0.13616943,-0.703125,0.5625,0.359375
417,1695726859704,-0.33447266,-0.96221924,0.14007568,-0.125,0.828125,0.125
418,1695726859745,-0.3317871,-0.9692993,0.14227295,0.515625,-0.234375,0.6875
419,1695726859784,-0.32617188,-0.9570923,0.14178467,-0.390625,0.546875,0.5625
420,1695726859826,-0.32910156,-0.95758057,0.1329956,-1.953125,0.125,0.28125
421,1695726859866,-0.32910156,-0.9607544,0.14202881,-0.953125,-0.046875,0.265625
422,1695726859905,-0.32739258,-0.9631958,0.1383667,-1.171875,-0.296875,-0.125
423,1695726859943,-0.3293457,-0.96588135,0.14422607,-1.765625,0.859375,0.15625
424,1695726859984,-0.3317871,-0.96759033,0.14056396,-1.125,0.71875,0.515625
425,1695726860024,-0.32641602,-0.9573364,0.15350342,-0.453125,0.40625,0.328125
426,1695726860065,-0.33642578,-0.96417236,0.13226318,-1.84375,0.65625,0.0
427,1695726860104,-0.328125,-0.96417236,0.15692139,-2.390625,1.9375,-0.375
428,1695726860167,-0.33374023,-0.96588135,0.14398193,0.109375,1.453125,0.671875
429,1695726860186,-0.32617188,-0.9590454,0.14129639,-1.59375,0.625,-0.203125
430,1695726860227,-0.3227539,-0.96661377,0.14910889,-1.921875,0.90625,-0.140625
431,1695726860265,-0.33496094,-0.96661377,0.15130615,-1.484375,1.5625,-0.234375
432,1695726860304,-0.32861328,-0.9612427,0.15570068,-1.25,0.90625,0.078125
433,1695726860345,-0.32250977,-0.9585571,0.14935303,-1.0,0.625,-0.40625
434,1695726860384,-0.33325195,-0.9717407,0.15447998,-1.375,0.953125,-0.234375
435,1695726860405,-0.33032227,-0.9661255,0.16326904,-1.34375,1.46875,-0.375
436,1695726860445,-0.33569336,-0.9639282,0.14764404,-1.578125,1.453125,-0.109375
437,1695726860486,-0.3244629,-0.95562744,0.15765381,-2.5,1.46875,-0.3125
438,1695726860525,-0.34033203,-0.9614868,0.1618042,-2.90625,2.484375,-0.4375
439,1695726860565,-0.33276367,-0.96295166,0.1630249,-2.296875,2.53125,0.40625
440,1695726860605,-0.32861328,-0.96099854,0.17376709,-2.546875,2.625,-0.140625
441,1695726860646,-0.32055664,-0.95440674,0.17645264,-1.75,2.328125,-0.359375
442,1695726860685,-0.34057617,-0.9612427,0.18206787,-0.875,2.203125,-0.046875
443,1695726860744,-0.33935547,-0.96661377,0.18865967,-0.828125,2.109375,0.71875
444,1695726860765,-0.33203125,-0.9636841,0.16937256,-1.0,1.890625,0.15625
445,1695726860805,-0.34375,-0.9590454,0.16790771,0.140625,1.875,0.171875
446,1695726860845,-0.3334961,-0.954895,0.1918335,-1.5,3.40625,2.234375
447,1695726860885,-0.3269043,-0.9714966,0.19110107,2.09375,1.078125,1.65625
448,1695726860935,-0.33007812,-0.9558716,0.16937256,-2.296875,-0.625,1.078125
449,1695726860966,-0.3190918,-0.9602661,0.18939209,-1.859375,2.703125,0.984375
450,1695726861004,-0.32104492,-0.960022,0.19110107,0.515625,1.71875,0.6875
451,1695726861045,-0.32104492,-0.9651489,0.1798706,0.28125,-0.078125,-0.140625
452,1695726861085,-0.32128906,-0.9685669,0.18377686,-1.015625,1.375,-0.296875
453,1695726861125,-0.3310547,-0.95684814,0.18426514,-1.15625,0.96875,-0.15625
454,1695726861165,-0.31445312,-0.9529419,0.1774292,-0.171875,-0.296875,0.328125
455,1695726861205,-0.32128906,-0.9607544,0.17254639,-1.515625,0.890625,-0.03125
456,1695726861247,-0.3269043,-0.97003174,0.20159912,-0.03125,1.734375,0.375
457,1695726861284,-0.32739258,-0.9614868,0.184021,-1.15625,1.6875,0.34375
458,1695726861327,-0.32836914,-0.9585571,0.18817139,-0.515625,1.046875,0.03125
459,1695726861367,-0.32177734,-0.958313,0.18450928,-0.5,0.90625,0.1875
460,1695726861405,-0.31933594,-0.9614868,0.18572998,0.140625,1.359375,0.234375
461,1695726861446,-0.31567383,-0.96173096,0.1906128,-0.5,2.203125,0.03125
462,1695726861485,-0.31933594,-0.96221924,0.1906128,-0.875,1.46875,0.015625
463,1695726861526,-0.31860352,-0.9553833,0.1918335,-1.234375,1.1875,-0.453125
464,1695726861567,-0.32348633,-0.9661255,0.18695068,-0.328125,1.140625,0.5
465,1695726861605,-0.32299805,-0.95562744,0.1918335,-0.28125,1.578125,-0.09375
466,1695726861645,-0.3310547,-0.9522095,0.18743896,-1.328125,1.65625,-0.203125
467,1695726861686,-0.33203125,-0.96051025,0.18572998,-0.921875,0.953125,0.546875
468,1695726861704,-0.31640625,-0.9612427,0.2020874,-0.203125,1.40625,-0.21875
469,1695726861745,-0.3251953,-0.9771118,0.18353271,0.671875,0.890625,-0.21875
470,1695726861784,-0.33422852,-0.95391846,0.18841553,-2.921875,1.390625,-0.640625
471,1695726861823,-0.3232422,-0.9619751,0.20477295,-0.84375,1.359375,0.203125
472,1695726861864,-0.32006836,-0.956604,0.19573975,0.796875,0.421875,0.25
473,1695726861904,-0.3317871,-0.96173096,0.20037842,0.265625,-0.234375,-0.75
474,1695726861944,-0.32836914,-0.95928955,0.19451904,-0.59375,0.84375,-0.03125
475,1695726862003,-0.32788086,-0.96221924,0.2020874,0.234375,1.0,0.453125
476,1695726862025,-0.3244629,-0.95635986,0.19036865,-0.03125,-0.109375,-0.21875
477,1695726862065,-0.3269043,-0.9602661,0.18963623,-0.640625,-0.328125,-0.59375
478,1695726862105,-0.3322754,-0.96661377,0.19891357,1.84375,-0.53125,-0.03125
479,1695726862146,-0.32861328,-0.96099854,0.18084717,0.78125,-0.421875,0.1875
480,1695726862184,-0.32592773,-0.9570923,0.18084717,0.84375,0.6875,0.34375
481,1695726862225,-0.3244629,-0.96099854,0.18133545,0.71875,0.875,0.015625
482,1695726862264,-0.33325195,-0.95806885,0.18328857,1.625,0.609375,0.140625
483,1695726862304,-0.32739258,-0.9561157,0.17279053,1.0,-0.125,0.28125
484,1695726862345,-0.32543945,-0.96343994,0.18255615,1.84375,0.5,0.328125
485,1695726862384,-0.32373047,-0.9595337,0.17694092,1.203125,0.4375,0.28125
486,1695726862426,-0.32983398,-0.95928955,0.17352295,1.75,0.046875,0.25
487,1695726862465,-0.3359375,-0.9668579,0.16888428,2.234375,-0.390625,0.578125
488,1695726862505,-0.32543945,-0.9534302,0.1630249,0.78125,-0.34375,0.390625
489,1695726862545,-0.3330078,-0.96173096,0.15423584,0.96875,0.515625,0.40625
490,1695726862585,-0.32348633,-0.96954346,0.16912842,1.171875,0.640625,0.265625
491,1695726862624,-0.32666016,-0.9636841,0.15594482,1.921875,0.34375,0.3125
492,1695726862668,-0.32470703,-0.96051025,0.15252686,-1.078125,0.8125,-0.1875
493,1695726862704,-0.32885742,-0.96588135,0.16741943,1.359375,1.875,0.96875
494,1695726862744,-0.31982422,-0.95928955,0.14642334,0.984375,0.40625,0.390625
495,1695726862786,-0.32470703,-0.9614868,0.15081787,0.15625,0.1875,0.0
496,1695726862824,-0.31933594,-0.96588135,0.16595459,2.125,1.515625,0.296875
497,1695726862865,-0.32470703,-0.9702759,0.13519287,2.84375,-0.96875,0.71875
498,1695726862905,-0.31958008,-0.958313,0.13885498,-0.109375,-0.015625,0.3125
499,1695726862944,-0.3310547,-0.96832275,0.15594482,-0.234375,0.765625,0.171875
500,1695726863006,-0.32421875,-0.96466064,0.14398193,0.328125,0.125,0.609375
501,1695726863009,-0.31958008,-0.9663696,0.12689209,0.1875,-0.28125,0.265625
502,1695726863045,-0.32348633,-0.96539307,0.14276123,-1.15625,-0.078125,0.015625
503,1695726863126,-0.32348633,-0.9692993,0.1486206,-0.328125,0.578125,0.203125
504,1695726863129,-0.31811523,-0.96588135,0.14349365,-0.734375,0.96875,0.15625
505,1695726863167,-0.32617188,-0.96295166,0.14569092,-0.59375,0.40625,0.046875
506,1695726863206,-0.3215332,-0.9673462,0.15032959,-0.953125,1.53125,0.34375
507,1695726863245,-0.32373047,-0.9678345,0.14447021,-1.1875,1.34375,0.171875
508,1695726863286,-0.32128906,-0.9624634,0.14251709,-0.953125,1.015625,0.15625
509,1695726863325,-0.30639648,-0.96295166,0.1408081,-2.65625,2.359375,0.25
510,1695726863368,-0.31518555,-0.9661255,0.16033936,-1.734375,3.59375,-0.09375
511,1695726863403,-0.328125,-0.97247314,0.15203857,-2.359375,1.71875,0.140625
512,1695726863443,-0.31884766,-0.9690552,0.17254639,-0.734375,2.375,0.109375
513,1695726863484,-0.32055664,-0.95806885,0.137146,-2.84375,1.84375,0.171875
514,1695726863523,-0.32470703,-0.9624634,0.17425537,-1.71875,2.0,0.21875
515,1695726863565,-0.32177734,-0.9673462,0.15863037,0.015625,1.546875,0.75
516,1695726863605,-0.32128906,-0.96051025,0.1593628,-1.390625,1.265625,0.109375
517,1695726863644,-0.31689453,-0.9627075,0.1618042,-1.953125,1.0625,-0.421875
518,1695726863684,-0.3166504,-0.96661377,0.17596436,-1.953125,1.3125,-0.34375
519,1695726863724,-0.32250977,-0.96710205,0.17913818,-0.734375,1.078125,0.25
520,1695726863768,-0.31860352,-0.9636841,0.16644287,-2.125,1.03125,-0.375
521,1695726863805,-0.32177734,-0.96832275,0.17425537,-2.125,1.203125,-0.578125
522,1695726863847,-0.33203125,-0.9649048,0.1696167,-1.796875,0.875,-0.15625
523,1695726863890,-0.32128906,-0.9678345,0.17449951,-2.4375,1.34375,-0.4375
524,1695726863924,-0.3203125,-0.9619751,0.1828003,-2.765625,1.9375,-0.59375
525,1695726863964,-0.32006836,-0.95928955,0.19012451,-2.265625,1.75,-0.0625
526,1695726864005,-0.3239746,-0.9661255,0.18597412,-2.15625,0.984375,-0.03125
527,1695726864043,-0.32641602,-0.9614868,0.1954956,-2.0625,1.96875,-0.34375
528,1695726864086,-0.3244629,-0.9656372,0.19525146,-1.921875,1.765625,-0.125
529,1695726864124,-0.33007812,-0.95758057,0.18890381,-1.328125,1.3125,-0.28125
530,1695726864165,-0.33154297,-0.9595337,0.19598389,-0.953125,1.1875,0.046875
531,1695726864205,-0.32763672,-0.9607544,0.19940186,-1.125,1.90625,-0.15625
532,1695726864248,-0.3256836,-0.96099854,0.19573975,-0.96875,1.5625,-0.03125
533,1695726864285,-0.32617188,-0.9585571,0.19598389,-1.671875,0.8125,0.234375
534,1695726864305,-0.32080078,-0.956604,0.21990967,0.65625,1.65625,0.0
535,1695726864345,-0.33007812,-0.95758057,0.18865967,-0.734375,0.640625,0.078125
536,1695726864385,-0.3239746,-0.95318604,0.19744873,-2.546875,1.734375,-0.71875
537,1695726864424,-0.328125,-0.95635986,0.20770264,0.140625,2.34375,0.5
538,1695726864466,-0.32104492,-0.9585571,0.20794678,-0.03125,1.421875,0.03125
539,1695726864505,-0.33154297,-0.9590454,0.2033081,-0.125,1.5,-0.453125
540,1695726864545,-0.32299805,-0.95562744,0.19476318,-1.15625,1.171875,-0.015625
541,1695726864587,-0.32788086,-0.9607544,0.21185303,0.078125,1.609375,0.484375
542,1695726864623,-0.33007812,-0.95269775,0.20159912,-0.390625,1.015625,0.0
543,1695726864665,-0.32885742,-0.9558716,0.19989014,-1.046875,1.828125,0.28125
544,1695726864704,-0.3305664,-0.95977783,0.20892334,-0.6875,2.046875,0.3125
545,1695726864744,-0.31982422,-0.95880127,0.20770264,-0.296875,1.46875,-0.015625
546,1695726864785,-0.3269043,-0.96417236,0.20843506,-0.46875,1.21875,0.078125
547,1695726864824,-0.32617188,-0.9612427,0.20574951,-0.765625,1.0625,0.21875
548,1695726864866,-0.32666016,-0.95196533,0.2140503,-0.171875,1.625,0.265625
549,1695726864906,-0.3256836,-0.9614868,0.2098999,-0.28125,0.828125,0.15625
550,1695726864944,-0.32373047,-0.9590454,0.20257568,-0.3125,0.859375,-0.109375
551,1695726864984,-0.32348633,-0.9573364,0.20574951,0.328125,0.828125,-0.234375
552,1695726865024,-0.32299805,-0.9553833,0.21551514,-0.0625,1.203125,0.15625
553,1695726865066,-0.3317871,-0.95880127,0.20550537,-0.453125,0.359375,0.171875
554,1695726865105,-0.32592773,-0.9590454,0.20892334,-0.171875,0.578125,-0.03125
555,1695726865144,-0.32299805,-0.95684814,0.20892334,0.609375,0.96875,0.0
556,1695726865185,-0.3293457,-0.95562744,0.20281982,0.0625,0.125,0.21875
557,1695726865224,-0.32739258,-0.96417236,0.20233154,-0.015625,0.546875,0.46875
558,1695726865263,-0.3244629,-0.9507446,0.20526123,1.234375,0.734375,-0.34375
559,1695726865304,-0.3322754,-0.95880127,0.19476318,2.90625,-0.015625,0.0625
560,1695726865344,-0.32128906,-0.9570923,0.18255615,-1.59375,0.4375,0.171875
561,1695726865384,-0.31860352,-0.9690552,0.21453857,0.21875,2.265625,0.421875
562,1695726865424,-0.32910156,-0.9570923,0.19085693,2.84375,0.375,0.390625
563,1695726865466,-0.32128906,-0.95513916,0.1930542,1.265625,-0.1875,0.703125
564,1695726865505,-0.31982422,-0.9631958,0.1906128,1.34375,0.6875,0.578125
565,1695726865544,-0.32763672,-0.96539307,0.1930542,2.859375,0.15625,0.515625
566,1695726865585,-0.32348633,-0.95684814,0.17303467,1.515625,-0.421875,1.328125
567,1695726865624,-0.32641602,-0.9636841,0.18695068,1.65625,0.625,0.3125
568,1695726865644,-0.32739258,-0.96588135,0.17669678,3.046875,-0.421875,0.90625
569,1695726865687,-0.31689453,-0.96051025,0.1630249,1.46875,-0.09375,1.046875
570,1695726865744,-0.3112793,-0.96881104,0.15618896,1.296875,1.140625,0.484375
571,1695726865765,-0.3076172,-0.9612427,0.1515503,0.671875,0.25,0.765625
572,1695726865804,-0.3215332,-0.96759033,0.15423584,1.125,0.171875,0.65625
573,1695726865844,-0.30981445,-0.96343994,0.15130615,0.8125,0.609375,1.078125
574,1695726865884,-0.30908203,-0.95928955,0.15325928,0.234375,0.6875,0.453125
575,1695726865924,-0.3149414,-0.9663696,0.15863037,0.328125,0.25,0.53125
576,1695726865964,-0.3166504,-0.9663696,0.15765381,-0.046875,0.15625,0.578125
577,1695726866006,-0.31396484,-0.9685669,0.16229248,-0.25,0.484375,0.640625
578,1695726866045,-0.31982422,-0.96417236,0.1618042,0.328125,0.25,0.390625
579,1695726866087,-0.31396484,-0.9717407,0.1720581,-0.046875,-0.234375,-0.03125
580,1695726866124,-0.3173828,-0.96832275,0.16375732,-1.453125,0.734375,-0.453125
581,1695726866186,-0.32104492,-0.9612427,0.17156982,-2.875,2.921875,-0.3125
582,1695726866207,-0.31860352,-0.96881104,0.15496826,-1.3125,1.296875,-0.25
583,1695726866245,-0.30078125,-0.9578247,0.16986084,-0.9375,0.484375,-0.21875
584,1695726866284,-0.31811523,-0.9673462,0.16766357,-0.296875,1.59375,-0.109375
585,1695726866324,-0.31689453,-0.9627075,0.17376709,-2.8125,1.25,-0.8125
586,1695726866367,-0.3203125,-0.96588135,0.17694092,-0.6875,1.65625,-0.328125
587,1695726866405,-0.31591797,-0.95758057,0.16741943,-1.453125,2.28125,-0.171875
588,1695726866448,-0.3149414,-0.9663696,0.17254639,-2.109375,1.390625,-0.296875
589,1695726866485,-0.3190918,-0.96466064,0.18109131,-1.859375,2.03125,-0.5625
590,1695726866525,-0.32128906,-0.96051025,0.18743896,-1.484375,2.71875,-0.03125
591,1695726866565,-0.3166504,-0.95806885,0.17572021,-1.328125,1.734375,0.140625
592,1695726866606,-0.32373047,-0.960022,0.17938232,-2.65625,1.359375,-0.6875
593,1695726866645,-0.31762695,-0.96832275,0.18817139,-1.65625,1.0625,-0.375
594,1695726866684,-0.32055664,-0.9536743,0.18328857,-1.5,1.53125,-0.484375
595,1695726866725,-0.32495117,-0.9651489,0.18670654,-1.578125,1.40625,-0.125
596,1695726866765,-0.32226562,-0.9612427,0.19573975,-2.15625,0.78125,-0.359375
597,1695726866804,-0.3232422,-0.96295166,0.18914795,-1.03125,1.234375,-0.171875
598,1695726866843,-0.32348633,-0.9619751,0.19696045,-1.203125,1.703125,-0.015625
599,1695726866926,-0.3232422,-0.95977783,0.19647217,-1.671875,1.0,-0.078125
600,1695726866929,-0.31567383,-0.958313,0.19866943,-1.953125,1.453125,-0.25
601,1695726866944,-0.32226562,-0.9661255,0.19671631,-1.390625,1.9375,-0.140625
602,1695726866985,-0.3227539,-0.9595337,0.20013428,-1.734375,1.828125,-0.203125
603,1695726867024,-0.32470703,-0.9590454,0.19744873,-1.109375,1.671875,-0.1875
604,1695726867065,-0.3244629,-0.9578247,0.20794678,-1.015625,1.25,-0.1875
605,1695726867109,-0.32177734,-0.9558716,0.20526123,-1.90625,2.09375,-0.359375
606,1695726867145,-0.32861328,-0.96832275,0.2020874,-2.65625,2.828125,-0.484375
607,1695726867185,-0.32080078,-0.9487915,0.21063232,-2.78125,1.96875,-0.578125
608,1695726867224,-0.3161621,-0.9558716,0.22723389,0.078125,1.234375,-0.390625
609,1695726867285,-0.33276367,-0.96099854,0.2086792,-2.5625,0.703125,-0.078125
610,1695726867304,-0.3293457,-0.9619751,0.21697998,-1.953125,2.171875,-0.625
611,1695726867344,-0.32958984,-0.9546509,0.2267456,-0.390625,2.328125,0.53125
612,1695726867405,-0.3215332,-0.958313,0.22332764,-1.0,1.453125,-0.359375
613,1695726867424,-0.3359375,-0.9524536,0.22723389,-1.6875,1.1875,-0.59375
614,1695726867465,-0.32763672,-0.9573364,0.22406006,-0.765625,1.625,-0.09375
615,1695726867505,-0.31591797,-0.9573364,0.23480225,-0.765625,1.765625,0.46875
616,1695726867545,-0.32348633,-0.9480591,0.22161865,-1.078125,0.78125,-0.640625
617,1695726867585,-0.3310547,-0.95269775,0.2230835,-1.5,1.546875,-0.25
618,1695726867625,-0.3251953,-0.95635986,0.2333374,-0.375,1.65625,0.34375
619,1695726867665,-0.32543945,-0.95318604,0.22918701,-0.75,1.328125,-0.125
620,1695726867705,-0.32983398,-0.95880127,0.23236084,-1.25,1.421875,0.015625
621,1695726867745,-0.32958984,-0.9529419,0.23162842,-0.84375,0.96875,0.125
622,1695726867785,-0.32226562,-0.9522095,0.23406982,-0.671875,1.375,-0.03125
623,1695726867824,-0.32543945,-0.9529419,0.22528076,-1.34375,1.609375,-0.234375
624,1695726867865,-0.3293457,-0.9558716,0.23406982,-1.390625,1.109375,-0.25
625,1695726867904,-0.32836914,-0.95391846,0.23944092,-0.984375,1.671875,-0.234375
626,1695726867945,-0.33496094,-0.94537354,0.23797607,-0.421875,0.734375,0.28125
627,1695726867985,-0.32983398,-0.95391846,0.23968506,-0.5625,0.671875,0.046875
628,1695726868045,-0.32910156,-0.9541626,0.24163818,0.046875,0.40625,0.203125
629,1695726868064,-0.32763672,-0.958313,0.23675537,0.21875,-0.1875,-0.1875
630,1695726868104,-0.3317871,-0.95440674,0.23431396,1.96875,-0.296875,0.15625
631,1695726868144,-0.3330078,-0.9517212,0.22698975,0.546875,0.109375,0.265625
632,1695726868184,-0.33325195,-0.9561157,0.2218628,0.515625,-0.359375,0.375
633,1695726868225,-0.32666016,-0.9446411,0.23699951,0.578125,0.125,-0.125
634,1695726868245,-0.33251953,-0.9627075,0.2255249,3.75,-0.984375,0.03125
635,1695726868285,-0.3269043,-0.9458618,0.2086792,-1.1875,0.109375,0.25
636,1695726868325,-0.33740234,-0.9512329,0.22698975,1.671875,1.28125,0.15625
637,1695726868365,-0.33935547,-0.95684814,0.21722412,1.984375,0.21875,0.546875
638,1695726868406,-0.32739258,-0.95513916,0.20916748,0.6875,-0.34375,0.203125
639,1695726868445,-0.33520508,-0.9590454,0.21234131,1.09375,0.890625,0.140625
640,1695726868485,-0.3330078,-0.95562744,0.22259521,2.078125,0.453125,0.390625
641,1695726868525,-0.3251953,-0.95880127,0.21014404,2.421875,-0.046875,0.78125
642,1695726868564,-0.33081055,-0.9573364,0.19598389,0.875,-0.34375,-0.09375
643,1695726868610,-0.3310547,-0.9602661,0.2111206,1.640625,1.390625,0.859375
644,1695726868645,-0.32788086,-0.9602661,0.19720459,1.125,-0.21875,0.578125
645,1695726868685,-0.32641602,-0.9573364,0.1906128,2.765625,0.390625,0.671875
646,1695726868725,-0.32666016,-0.96099854,0.19720459,1.65625,0.515625,0.703125
647,1695726868764,-0.32958984,-0.9614868,0.18743896,2.03125,-0.296875,0.59375
648,1695726868807,-0.3239746,-0.9619751,0.17547607,1.71875,-0.4375,0.59375
649,1695726868848,-0.3227539,-0.9644165,0.18499756,1.21875,0.265625,0.625
650,1695726868885,-0.32495117,-0.96539307,0.17694092,1.046875,0.21875,0.453125
651,1695726868924,-0.31982422,-0.96051025,0.17669678,1.015625,0.25,0.25
652,1695726868965,-0.3203125,-0.97491455,0.18597412,-0.6875,0.6875,0.125
653,1695726869004,-0.3227539,-0.96295166,0.1774292,0.328125,0.359375,0.109375
654,1695726869045,-0.3239746,-0.9631958,0.17523193,-0.34375,0.359375,0.34375
655,1695726869086,-0.32836914,-0.95880127,0.17840576,-1.59375,0.515625,-0.03125
656,1695726869127,-0.31713867,-0.96173096,0.16912842,-2.890625,0.765625,0.09375
657,1695726869166,-0.32348633,-0.96466064,0.18890381,-1.1875,1.453125,-0.265625
658,1695726869205,-0.3269043,-0.9595337,0.16912842,-2.53125,1.203125,-0.296875
659,1695726869264,-0.32348633,-0.96710205,0.19793701,-3.234375,2.375,-0.453125
660,1695726869285,-0.32080078,-0.9627075,0.19232178,-1.078125,1.984375,0.53125
661,1695726869344,-0.32348633,-0.9541626,0.18597412,-2.40625,1.25,-0.578125
662,1695726869364,-0.32373047,-0.96588135,0.19110107,-3.578125,1.390625,-0.546875
663,1695726869405,-0.32104492,-0.9585571,0.19573975,-2.828125,1.203125,-0.71875
664,1695726869444,-0.32885742,-0.9607544,0.2086792,-1.375,2.046875,-0.4375
665,1695726869483,-0.3322754,-0.956604,0.2086792,-0.71875,0.6875,-0.09375
666,1695726869525,-0.33740234,-0.956604,0.20111084,-2.703125,2.09375,-0.53125
667,1695726869545,-0.33789062,-0.9541626,0.21136475,-1.921875,2.09375,-0.015625
668,1695726869585,-0.3232422,-0.9495239,0.20428467,-1.953125,1.21875,0.109375
669,1695726869625,-0.32739258,-0.95977783,0.21673584,-2.28125,1.234375,-0.1875
670,1695726869664,-0.33325195,-0.9602661,0.21990967,-1.234375,1.3125,0.125
671,1695726869705,-0.3256836,-0.954895,0.21722412,-1.359375,0.5625,0.125
672,1695726869745,-0.32788086,-0.95635986,0.2255249,-1.640625,0.90625,-0.265625
673,1695726869784,-0.32910156,-0.960022,0.21600342,-1.96875,1.0625,-0.40625
674,1695726869823,-0.33374023,-0.9561157,0.2255249,-1.9375,1.125,-0.375
675,1695726869864,-0.33032227,-0.9529419,0.22503662,-1.78125,0.671875,-0.3125
676,1695726869904,-0.328125,-0.95806885,0.2333374,-1.875,1.28125,-0.21875
677,1695726869945,-0.34838867,-0.95196533,0.22796631,-1.84375,1.09375,-0.59375
678,1695726869984,-0.33911133,-0.9492798,0.22454834,-1.15625,1.15625,-0.15625
679,1695726870024,-0.3322754,-0.94903564,0.24017334,-1.5625,1.4375,0.078125
680,1695726870064,-0.33569336,-0.958313,0.24041748,0.515625,1.28125,-0.296875
681,1695726870105,-0.34350586,-0.9470825,0.2296753,-3.09375,1.265625,-0.328125
682,1695726870144,-0.33935547,-0.95147705,0.24139404,-2.609375,1.4375,0.15625
683,1695726870185,-0.33666992,-0.9541626,0.24822998,-1.109375,1.546875,0.09375
684,1695726870225,-0.32861328,-0.9463501,0.24066162,-0.953125,1.90625,-0.5
685,1695726870264,-0.33691406,-0.9507446,0.24163818,-1.15625,1.375,-0.046875
686,1695726870305,-0.33032227,-0.9475708,0.246521,-1.875,1.265625,-0.03125
687,1695726870344,-0.33569336,-0.9456177,0.2501831,-0.359375,1.453125,0.296875
688,1695726870384,-0.33374023,-0.9446411,0.2387085,-1.140625,0.8125,-0.125
689,1695726870428,-0.33813477,-0.9507446,0.25091553,-0.390625,1.078125,-0.015625
690,1695726870463,-0.33984375,-0.9536743,0.24871826,-0.875,1.203125,0.484375
691,1695726870504,-0.3371582,-0.9463501,0.24945068,-0.828125,0.8125,0.203125
692,1695726870544,-0.3359375,-0.9492798,0.25628662,-0.15625,0.5,0.015625
693,1695726870584,-0.33618164,-0.95025635,0.25579834,-0.40625,0.890625,-0.21875
694,1695726870625,-0.3408203,-0.9500122,0.24945068,0.203125,0.171875,0.28125
695,1695726870664,-0.34228516,-0.9507446,0.25994873,1.328125,0.828125,0.21875
696,1695726870705,-0.3400879,-0.9546509,0.25042725,1.046875,0.984375,0.0
697,1695726870744,-0.34228516,-0.9517212,0.24310303,-1.609375,1.15625,0.671875
698,1695726870785,-0.33691406,-0.95147705,0.24188232,-2.109375,1.375,0.28125
699,1695726870825,-0.32763672,-0.9487915,0.24261475,1.90625,1.890625,0.40625
700,1695726870865,-0.34033203,-0.95025635,0.25164795,1.265625,0.71875,0.390625
701,1695726870886,-0.3347168,-0.9456177,0.24603271,1.921875,0.125,0.578125
702,1695726870925,-0.33740234,-0.9458618,0.23968506,3.078125,0.625,0.484375
703,1695726870965,-0.33496094,-0.9546509,0.22381592,-0.390625,0.828125,0.15625
704,1695726871004,-0.3540039,-0.95562744,0.24139404,-0.265625,2.328125,0.9375
705,1695726871045,-0.33520508,-0.9553833,0.24066162,2.46875,2.96875,2.921875
706,1695726871088,-0.31469727,-0.95880127,0.22381592,2.34375,1.375,0.859375
707,1695726871125,-0.32080078,-0.956604,0.22918701,0.734375,0.921875,0.453125
708,1695726871165,-0.3227539,-0.9612427,0.2374878,2.234375,0.671875,0.140625
709,1695726871208,-0.32421875,-0.95635986,0.22381592,1.875,0.03125,0.46875
710,1695726871245,-0.32055664,-0.9500122,0.20941162,0.734375,0.25,-0.046875
711,1695726871288,-0.328125,-0.96466064,0.22210693,3.09375,-0.296875,0.125
712,1695726871326,-0.3251953,-0.9561157,0.20477295,2.03125,-0.796875,0.75
713,1695726871367,-0.32373047,-0.95684814,0.2074585,-0.09375,1.0625,1.15625
714,1695726871408,-0.32470703,-0.96173096,0.21502686,0.375,1.03125,0.140625
715,1695726871445,-0.32226562,-0.956604,0.20892334,0.890625,0.6875,0.703125
716,1695726871486,-0.3330078,-0.9529419,0.20306396,0.3125,1.171875,-0.125
717,1695726871526,-0.33081055,-0.9585571,0.20281982,-0.125,1.0,-0.015625
718,1695726871565,-0.3232422,-0.9602661,0.21820068,-0.140625,1.1875,-0.03125
719,1695726871605,-0.3347168,-0.95684814,0.20281982,0.453125,0.875,0.078125
720,1695726871645,-0.32885742,-0.9492798,0.19891357,-0.890625,0.609375,0.1875
721,1695726871686,-0.32250977,-0.95635986,0.20526123,-2.171875,0.9375,-0.171875
722,1695726871726,-0.33032227,-0.9590454,0.20672607,-1.890625,1.125,-0.234375
723,1695726871765,-0.32348633,-0.95684814,0.22137451,-0.234375,1.3125,-0.3125
724,1695726871808,-0.32128906,-0.95977783,0.19622803,-2.078125,0.859375,-0.1875
725,1695726871845,-0.3256836,-0.95391846,0.22845459,-2.8125,1.265625,-1.21875
726,1695726871887,-0.33666992,-0.96221924,0.22137451,-1.03125,1.8125,0.21875
727,1695726871928,-0.32495117,-0.95928955,0.20965576,-2.5,0.21875,-0.375
728,1695726871965,-0.33251953,-0.9607544,0.22454834,-2.359375,1.328125,-0.984375
729,1695726872005,-0.33520508,-0.9505005,0.22918701,-1.953125,1.421875,-0.390625
730,1695726872045,-0.3330078,-0.9534302,0.22332764,-1.078125,0.9375,0.328125
731,1695726872085,-0.32006836,-0.94317627,0.2140503,-1.09375,0.875,-0.265625
732,1695726872144,-0.32958984,-0.95025635,0.2321167,-2.625,1.296875,-0.859375
733,1695726872165,-0.34228516,-0.956604,0.23284912,-2.0625,1.3125,-0.140625
734,1695726872186,-0.32299805,-0.94976807,0.22943115,-3.421875,1.875,-0.109375
735,1695726872229,-0.32763672,-0.94537354,0.23699951,-3.546875,0.875,-1.0
736,1695726872264,-0.34204102,-0.95928955,0.24383545,-2.703125,0.75,-0.15625
737,1695726872305,-0.33935547,-0.9529419,0.24554443,-1.953125,1.359375,0.0625
738,1695726872344,-0.33081055,-0.94659424,0.25042725,-0.609375,1.171875,-0.046875
739,1695726872385,-0.33276367,-0.9546509,0.24700928,-1.40625,0.5625,-0.3125
740,1695726872425,-0.33789062,-0.94781494,0.2501831,-1.546875,0.265625,-0.171875
741,1695726872464,-0.33447266,-0.94610596,0.25457764,-0.921875,1.015625,-0.09375
742,1695726872505,-0.33666992,-0.9468384,0.25042725,-1.203125,1.21875,0.234375
743,1695726872544,-0.33398438,-0.9456177,0.2555542,-1.203125,0.953125,-0.171875
744,1695726872585,-0.33862305,-0.9512329,0.24945068,-1.453125,0.875,0.125
745,1695726872624,-0.3334961,-0.9429321,0.26287842,-0.296875,1.03125,-0.03125
746,1695726872663,-0.33935547,-0.95513916,0.25335693,0.203125,1.71875,0.5
747,1695726872702,-0.34350586,-0.9446411,0.24383545,-3.0625,1.59375,-0.59375
748,1695726872744,-0.33813477,-0.95147705,0.26922607,-0.828125,2.703125,0.203125
749,1695726872784,-0.33496094,-0.94488525,0.25994873,-0.734375,2.078125,0.265625
750,1695726872824,-0.3310547,-0.9470825,0.25360107,-0.78125,1.578125,-0.578125
751,1695726872865,-0.3317871,-0.95025635,0.2506714,-1.40625,1.90625,0.0
752,1695726872906,-0.3293457,-0.9558716,0.2675171,-0.65625,1.65625,0.34375
753,1695726872944,-0.32617188,-0.944397,0.25482178,-0.953125,0.71875,0.171875
754,1695726872985,-0.33520508,-0.9404907,0.26287842,-1.53125,1.171875,-0.3125
755,1695726873025,-0.33374023,-0.95977783,0.27069092,-0.078125,1.109375,0.421875
756,1695726873064,-0.33203125,-0.94537354,0.26434326,-0.671875,1.25,0.15625
757,1695726873105,-0.33276367,-0.9365845,0.26971436,-1.84375,0.75,0.078125
758,1695726873145,-0.33911133,-0.9512329,0.25946045,-0.921875,1.015625,-0.078125
759,1695726873204,-0.33789062,-0.93878174,0.2711792,-1.109375,1.265625,-0.15625
