# Sensor type: Respeck
# Activity type: Sitting
# Activity subtype: Singing
# Subject id: s1862623
# Notes: 
timestamp,accel_x,accel_y,accel_z,gyro_x,gyro_y,gyro_z
1695730110322,-0.04736328,-1.003479,0.0680542,-1.140625,1.046875,-0.53125
1695730110363,-0.02734375,-1.0029907,0.06829834,-3.234375,0.984375,0.578125
1695730110391,-0.028076172,-1.006897,0.08123779,-1.734375,2.921875,0.890625
1695730110437,-0.026855469,-0.99713135,0.0848999,-4.140625,3.390625,-2.265625
1695730110482,-0.044921875,-0.9956665,0.05316162,-0.453125,3.1875,0.6875
1695730110514,-0.025146484,-0.9951782,0.07489014,-5.53125,-2.6875,0.5
1695730110557,-0.013427734,-1.0117798,0.09051514,-10.40625,-0.78125,-0.125
1695730110590,-0.02368164,-1.0401001,0.09539795,-8.28125,-1.125,-1.28125
1695730110632,-0.04248047,-0.9866333,0.07611084,-6.0625,-1.78125,-1.09375
1695730110682,-0.025634766,-1.0337524,0.13104248,5.734375,-1.328125,1.5
1695730110707,-0.026611328,-1.0071411,0.09686279,-4.890625,0.359375,1.546875
1695730110752,-0.044677734,-0.99591064,0.0914917,5.40625,3.828125,2.40625
1695730110798,-0.025634766,-1.0247192,0.12347412,1.984375,3.40625,0.390625
1695730110827,-0.03491211,-1.0003052,0.10296631,4.4375,-0.234375,3.421875
1695730110875,-0.016113281,-0.99053955,0.09613037,-5.15625,2.625,-0.53125
1695730110903,-0.04638672,-1.0098267,0.07489014,2.3125,4.59375,2.109375
1695730110948,-0.0031738281,-1.0342407,0.0914917,-1.9375,3.484375,0.59375
1695730110992,0.009765625,-0.99957275,0.11639404,-7.453125,1.71875,-0.234375
1695730111023,-0.02319336,-0.9968872,0.07928467,3.171875,0.84375,0.6875
1695730111067,-0.012207031,-1.0203247,0.113220215,6.890625,3.171875,0.875
1695730111112,-0.025390625,-0.99591064,0.08538818,1.59375,1.3125,1.609375
1695730111144,-0.0061035156,-0.99884033,0.10247803,-2.359375,2.0,0.15625
1695730111189,0.0087890625,-1.0003052,0.08465576,-3.9375,-0.578125,0.03125
1695730111218,0.0012207031,-1.0061646,0.08782959,0.625,-0.5,2.234375
1695730111264,-0.0014648438,-1.0276489,0.08416748,-5.515625,0.890625,-1.8125
1695730111309,-0.0146484375,-1.0125122,0.11468506,3.703125,0.265625,-0.34375
1695730111339,-0.028564453,-1.0144653,0.09637451,-3.578125,2.34375,0.796875
1695730111384,-0.020019531,-0.98638916,0.078552246,-1.96875,-0.1875,-1.34375
1695730111430,0.001953125,-0.99420166,0.081726074,-2.1875,-0.734375,-0.703125
1695730111459,-0.020996094,-1.0195923,0.11248779,3.90625,1.359375,1.390625
1695730111504,-0.025878906,-1.0422974,0.11883545,3.59375,3.90625,0.390625
1695730111535,-0.009765625,-0.98272705,0.074401855,-0.578125,1.4375,-1.859375
1695730111579,0.008300781,-1.0003052,0.0680542,6.125,-1.875,0.84375
1695730111625,-0.011474609,-1.0181274,0.116882324,7.875,2.265625,0.84375
1695730111655,-0.05810547,-1.0454712,0.10223389,0.75,1.15625,0.90625
1695730111698,-0.028320312,-0.9837036,0.058288574,-3.3125,1.96875,-0.375
1695730111745,0.010253906,-1.0083618,0.074645996,2.703125,2.828125,0.03125
1695730111774,-0.034179688,-1.0195923,0.07171631,2.21875,-0.0625,2.640625
1695730111818,-0.03100586,-1.0274048,0.06561279,-1.765625,2.4375,2.859375
1695730111864,-0.001953125,-0.99176025,0.059020996,-2.140625,3.453125,-0.71875
1695730111894,0.0078125,-1.0195923,0.07659912,0.765625,1.0625,0.21875
1695730111939,-0.0041503906,-0.9741821,0.062683105,1.59375,0.4375,1.0625
1695730111968,9.765625E-4,-1.0349731,0.043151855,6.0,-1.046875,1.578125
1695730112014,0.0078125,-0.9890747,0.07147217,-1.53125,3.53125,-2.234375
1695730112059,-0.018066406,-1.0154419,0.07196045,5.6875,0.515625,1.40625
1695730112089,-0.0034179688,-0.9976196,0.042907715,-0.203125,-0.484375,0.984375
1695730112133,0.0146484375,-0.99346924,0.06121826,-2.46875,0.15625,-0.734375
1695730112178,-0.0029296875,-1.0032349,0.044128418,0.109375,-3.21875,0.15625
1695730112211,0.0075683594,-1.0166626,0.08734131,-10.625,-5.0,2.40625
1695730112256,-0.026367188,-1.019104,0.082214355,-12.0,-5.25,-2.09375
1695730112283,-0.03857422,-1.0549927,0.062683105,-0.828125,10.65625,-8.953125
1695730112328,-0.0036621094,-0.99786377,0.053649902,4.921875,8.546875,0.546875
1695730112382,-0.018310547,-0.9631958,0.11102295,11.28125,-1.59375,6.359375
1695730112403,-0.064453125,-0.9768677,0.10784912,-8.875,-2.5,-1.71875
1695730112448,-0.05444336,-1.0239868,0.04925537,-13.796875,-0.828125,-4.109375
1695730112494,0.05883789,-1.036438,0.07122803,-1.375,2.46875,1.734375
1695730112522,0.0390625,-1.0078735,0.12030029,11.921875,-1.28125,3.921875
1695730112568,-0.08569336,-0.98931885,0.06121826,-3.765625,-1.859375,-1.53125
1695730112599,-0.049072266,-1.0154419,0.05633545,-6.53125,2.125,-2.875
1695730112647,0.040771484,-1.0044556,0.0927124,-3.890625,0.578125,-0.53125
1695730112688,0.013916016,-1.0332642,0.12615967,2.625,0.765625,1.015625
1695730112719,-0.04711914,-1.0142212,0.09539795,-5.625,-2.484375,-4.34375
1695730112766,-0.05102539,-0.9871216,0.07147217,-6.3125,-1.640625,0.828125
1695730112809,0.021484375,-1.0132446,0.12298584,-6.90625,-3.296875,-0.71875
1695730112839,7.324219E-4,-1.0161743,0.14569092,-2.59375,0.921875,-0.21875
1695730112886,-0.040527344,-1.0090942,0.1083374,6.5625,-1.234375,1.875
1695730112916,-0.06591797,-0.986145,0.1329956,-3.484375,-0.4375,2.015625
1695730112959,-0.07397461,-1.0059204,0.13470459,-9.1875,0.078125,-1.296875
1695730113005,-0.0053710938,-0.9993286,0.11077881,-8.125,1.875,-2.453125
1695730113034,0.03149414,-1.0178833,0.12030029,4.0625,5.921875,4.96875
1695730113079,0.005126953,-1.0100708,0.13885498,1.171875,-0.25,0.0625
1695730113156,-0.064208984,-1.0046997,0.13446045,1.609375,1.859375,-3.34375
1695730113159,-0.025146484,-1.00177,0.09124756,-4.84375,3.046875,-1.890625
1695730113200,0.04321289,-0.98394775,0.11834717,4.125,4.875,-2.796875
1695730113235,-0.016601562,-1.039856,0.13665771,4.796875,-0.34375,0.421875
1695730113273,-0.068359375,-1.0288696,0.1227417,-1.484375,1.03125,-2.203125
1695730113319,-0.05126953,-1.0078735,0.109313965,-2.71875,-2.015625,-0.203125
1695730113350,-0.010986328,-0.98150635,0.1359253,-3.53125,0.90625,-0.9375
1695730113394,-0.029052734,-1.0171509,0.117370605,1.546875,1.0625,0.78125
1695730113441,-0.052490234,-1.0115356,0.14520264,-9.828125,-3.640625,-1.5
1695730113469,-0.045898438,-0.9949341,0.13812256,-3.640625,-0.5625,-3.703125
1695730113516,-0.023925781,-1.020813,0.12176514,-0.171875,-0.515625,-0.265625
1695730113544,-0.024902344,-1.0230103,0.14935303,-7.078125,-3.765625,-0.125
1695730113589,-0.06713867,-1.005188,0.17889404,0.515625,0.78125,0.65625
1695730113634,-0.07714844,-1.0044556,0.18353271,3.3125,0.453125,-0.09375
1695730113679,-0.052734375,-0.958313,0.11004639,-7.46875,3.421875,-1.5
1695730113709,-0.021240234,-0.9985962,0.16473389,-2.203125,2.71875,3.578125
1695730113753,-0.020507812,-1.0383911,0.19110107,2.1875,0.296875,0.46875
1695730113784,-0.053222656,-1.0222778,0.121276855,-2.578125,1.46875,-1.828125
1695730113829,-0.04296875,-0.96173096,0.16107178,-1.828125,5.09375,-1.15625
1695730113859,-0.032226562,-1.0276489,0.16595459,-1.359375,-0.65625,-1.6875
1695730113903,-0.029052734,-1.0066528,0.15716553,-2.984375,1.1875,-2.859375
1695730113950,-0.037597656,-0.98638916,0.13909912,-1.828125,2.609375,-1.078125
1695730113979,-0.027832031,-1.0403442,0.1864624,5.15625,0.15625,-0.640625
1695730114024,-0.06616211,-1.0130005,0.15570068,3.28125,-1.828125,2.1875
1695730114069,-0.07348633,-0.960022,0.14178467,-1.9375,-1.5,-1.21875
1695730114099,-0.041748047,-1.0256958,0.16156006,0.015625,1.28125,2.0625
1695730114144,-0.05126953,-1.0298462,0.17962646,-3.484375,-2.109375,1.03125
1695730114175,-0.057617188,-1.0010376,0.14813232,-2.53125,-2.21875,-1.828125
1695730114219,-0.041748047,-1.0012817,0.15252686,-3.515625,4.0625,0.8125
1695730114265,-0.03515625,-1.0195923,0.17279053,1.953125,-3.671875,0.375
1695730114294,-0.076660156,-1.0039673,0.17303467,-0.921875,1.75,1.0625
1695730114339,-0.10522461,-0.98223877,0.16986084,1.34375,1.828125,-1.0
1695730114385,-0.056884766,-0.9751587,0.16278076,-2.28125,4.515625,-1.609375
1695730114415,0.010986328,-1.029602,0.18157959,1.109375,4.9375,4.28125
1695730114459,-0.02319336,-1.0039673,0.17156982,6.9375,2.703125,1.65625
1695730114490,-0.08300781,-0.99835205,0.15106201,3.828125,0.703125,-1.984375
1695730114535,-0.05883789,-0.99346924,0.12615967,-3.125,5.0,1.40625
1695730114579,0.017333984,-1.0122681,0.16131592,3.515625,3.703125,-1.171875
1695730114609,-0.03100586,-1.0076294,0.14398193,5.0,3.078125,-0.28125
1695730114654,-0.068115234,-1.0220337,0.11785889,3.0625,-0.65625,1.140625
1695730114699,-0.02734375,-1.010315,0.11248779,0.0,2.96875,0.3125
1695730114729,-0.014160156,-1.0090942,0.14544678,4.484375,2.375,2.5
1695730114774,-0.06274414,-1.0022583,0.11444092,0.078125,0.328125,1.15625
1695730114808,-0.05517578,-1.0078735,0.11834717,-0.6875,-0.15625,0.109375
1695730114849,-0.044677734,-1.0027466,0.12860107,-1.484375,3.21875,0.65625
1695730114895,-0.033203125,-1.0178833,0.14422607,2.953125,-0.234375,1.203125
1695730114924,-0.038085938,-1.0003052,0.10467529,-4.828125,0.203125,-1.40625
1695730114969,-0.025390625,-1.0147095,0.137146,1.28125,1.53125,1.984375
1695730115015,-0.021728516,-1.0161743,0.13909912,0.546875,-2.8125,-0.953125
1695730115043,-0.03100586,-1.0112915,0.12860107,-0.5,-0.75,2.265625
1695730115089,-0.08227539,-1.015686,0.1293335,-2.75,1.15625,1.46875
1695730115119,-0.061279297,-0.9885864,0.14105225,1.765625,2.6875,-0.640625
1695730115165,-0.014160156,-1.0064087,0.14349365,-2.828125,3.21875,2.0625
1695730115211,-0.033203125,-0.9927368,0.13763428,1.734375,1.96875,3.875
1695730115239,-0.034179688,-1.0076294,0.121520996,-2.0,4.328125,0.453125
1695730115287,-0.019042969,-1.003479,0.11541748,1.59375,4.609375,-0.671875
1695730115329,-0.0024414062,-1.0220337,0.13006592,2.703125,4.359375,2.0
1695730115359,0.011474609,-0.99884033,0.11810303,2.15625,2.046875,1.9375
1695730115405,-0.033691406,-0.9907837,0.0914917,1.640625,-1.1875,-0.109375
1695730115434,-0.00390625,-1.0354614,0.12200928,-6.0625,0.984375,-1.84375
1695730115479,-0.016845703,-1.0046997,0.1329956,5.90625,2.9375,1.6875
1695730115525,-0.017822266,-1.0071411,0.1083374,0.796875,0.15625,0.375
1695730115555,-0.011962891,-0.97003174,0.11517334,-2.34375,-1.15625,-1.21875
1695730115599,-0.04345703,-1.0205688,0.11639404,-0.296875,-1.03125,2.6875
1695730115659,-0.0034179688,-1.0171509,0.12738037,-5.515625,0.609375,-1.015625
1695730115676,-0.03515625,-1.019104,0.11859131,3.265625,0.03125,0.765625
1695730115719,-0.044433594,-0.9854126,0.15960693,1.328125,2.875,0.390625
1695730115768,-0.057861328,-1.0046997,0.11907959,4.703125,1.703125,2.6875
1695730115795,-0.022705078,-0.98272705,0.13104248,-4.125,3.234375,0.1875
1695730115839,-2.4414062E-4,-1.0151978,0.12615967,2.765625,5.140625,4.546875
1695730115869,-0.018066406,-0.98321533,0.1071167,-1.25,1.625,1.234375
1695730115914,-0.013671875,-0.9973755,0.09515381,3.375,6.34375,-0.71875
1695730115959,0.028076172,-1.0303345,0.11956787,-1.578125,7.625,0.609375
1695730115989,0.018798828,-1.0254517,0.09197998,5.484375,4.15625,1.109375
1695730116034,0.016113281,-0.9800415,0.08758545,0.1875,0.5625,-0.34375
1695730116079,-0.018066406,-0.99884033,0.07196045,1.21875,1.265625,-0.53125
1695730116110,0.01586914,-1.0029907,0.093933105,-1.796875,1.359375,-2.0625
1695730116154,0.010009766,-1.0293579,0.07684326,0.734375,-0.421875,0.671875
1695730116184,-0.015380859,-1.0100708,0.10003662,4.65625,-1.25,-0.375
1695730116229,-0.029541016,-0.99713135,0.082458496,-2.546875,2.640625,-1.03125
1695730116273,-0.01977539,-1.0198364,0.09124756,-2.015625,1.609375,0.1875
1695730116306,-0.036865234,-1.0093384,0.0993042,0.265625,0.3125,0.421875
1695730116349,-0.01977539,-1.0059204,0.08343506,-2.96875,0.453125,-0.65625
1695730116394,-9.765625E-4,-1.0249634,0.11663818,-1.71875,-0.859375,-0.25
1695730116424,-0.022705078,-0.9805298,0.09222412,-1.125,-1.015625,0.390625
1695730116470,-0.07788086,-0.9932251,0.093444824,-0.71875,3.375,0.828125
1695730116545,-0.012939453,-1.0549927,0.15057373,-0.46875,1.5625,-2.859375
1695730116548,0.009765625,-1.0105591,0.116882324,4.28125,4.03125,1.75
1695730116589,-0.011474609,-0.94854736,0.105407715,1.296875,2.640625,3.546875
1695730116649,-0.037353516,-1.0234985,0.1005249,-2.40625,5.9375,0.21875
1695730116664,-0.015625,-1.0488892,0.08905029,0.703125,4.8125,-0.40625
1695730116709,0.021484375,-0.9920044,0.097839355,-1.140625,6.046875,-0.875
1695730116739,0.034179688,-0.9812622,0.07879639,2.265625,4.875,1.703125
1695730116784,-0.001953125,-0.99468994,0.0758667,-0.421875,0.0,0.109375
1695730116813,-0.028076172,-1.0261841,0.078308105,-0.203125,-2.15625,-1.96875
1695730116857,0.0026855469,-1.0227661,0.07904053,0.34375,0.828125,-0.0625
1695730116904,-0.0056152344,-0.9907837,0.09124756,-0.640625,0.546875,0.046875
1695730116935,-0.023925781,-1.0022583,0.08416748,-3.390625,-1.34375,-0.578125
1695730116981,-0.0073242188,-1.0137329,0.105407715,-6.4375,-2.21875,-3.03125
1695730117026,-0.018310547,-0.99542236,0.12298584,-8.15625,-3.3125,-0.375
1695730117055,-0.02734375,-1.0269165,0.105407715,-19.765625,-2.796875,-5.796875
1695730117098,-0.015136719,-1.0230103,0.17449951,-7.53125,-0.125,-5.65625
1695730117129,-0.03540039,-0.9697876,0.17327881,11.46875,-7.09375,1.296875
1695730117173,-0.072753906,-0.9570923,0.12738037,-9.953125,-6.640625,2.21875
1695730117219,-0.036376953,-1.0371704,0.16473389,6.296875,9.640625,-0.6875
1695730117249,-0.084228516,-1.0408325,0.15179443,22.875,9.953125,3.0625
1695730117295,-0.119384766,-1.0603638,0.0045776367,-7.28125,4.234375,4.6875
1695730117339,0.11816406,-0.8772583,0.082214355,-0.859375,10.359375,4.4375
1695730117368,0.053955078,-1.0757446,0.08294678,36.375,-7.109375,11.28125
1695730117416,0.02319336,-1.0628052,0.08050537,-3.703125,-1.5,-0.578125
1695730117445,-0.052490234,-0.9680786,0.10858154,6.171875,-10.0625,6.171875
1695730117488,-0.052490234,-1.02594,0.042907715,-3.75,5.171875,-3.84375
1695730117533,0.07373047,-1.0186157,0.09222412,-1.375,4.703125,-3.203125
1695730117566,0.014892578,-1.0159302,0.04144287,9.21875,0.90625,0.328125
1695730117609,-0.009521484,-0.9639282,0.050964355,-1.4375,-4.734375,2.65625
1695730117656,-0.036132812,-0.99664307,0.051940918,-0.25,-2.765625,2.953125
1695730117686,0.036132812,-1.0261841,0.053894043,-5.34375,2.734375,-1.640625
1695730117729,0.03466797,-1.0276489,0.066101074,2.125,-1.453125,2.796875
1695730117760,-0.0036621094,-0.99224854,0.058288574,-1.953125,-2.90625,-0.6875
1695730117806,-0.025146484,-1.0083618,0.050231934,-4.96875,-1.140625,0.5
1695730117849,0.008056641,-1.0044556,0.06732178,-6.421875,1.0,-1.328125
1695730117880,0.004638672,-1.0171509,0.04876709,3.640625,2.265625,-0.890625
1695730117926,0.033203125,-1.0234985,0.074401855,-5.3125,-2.125,-1.25
1695730117968,-0.005126953,-1.0022583,0.10247803,-3.359375,-2.1875,0.859375
1695730117999,-0.028564453,-1.0081177,0.10614014,1.9375,-3.6875,-1.59375
1695730118046,-0.017578125,-1.0003052,0.06829834,-11.5,2.046875,-1.34375
1695730118073,0.02709961,-0.99591064,0.10687256,0.4375,1.625,-1.0
1695730118119,-0.0056152344,-1.039856,0.121276855,1.0625,3.1875,2.796875
1695730118165,0.007080078,-0.9871216,0.101745605,-3.640625,-0.3125,0.46875
1695730118194,-0.008300781,-0.95684814,0.10736084,0.421875,4.203125,0.78125
1695730118239,0.01586914,-1.0344849,0.112976074,-2.59375,2.703125,0.5625
1695730118285,0.025878906,-1.0232544,0.09295654,-4.578125,2.8125,0.359375
1695730118318,0.028564453,-1.0027466,0.09686279,5.703125,2.71875,-0.109375
1695730118360,0.0031738281,-0.99664307,0.08856201,-0.828125,1.328125,0.109375
1695730118389,-0.012207031,-1.0095825,0.08074951,-2.40625,0.65625,0.640625
1695730118434,-0.00390625,-1.0144653,0.109313965,0.453125,0.828125,-0.28125
1695730118480,0.009765625,-1.0090942,0.09515381,-5.046875,0.890625,-0.78125
1695730118509,-0.02368164,-1.0151978,0.101745605,1.96875,1.15625,-0.015625
1695730118555,0.015380859,-1.0117798,0.113464355,-3.546875,-1.734375,-1.71875
1695730118599,-0.012451172,-0.9924927,0.1083374,-1.6875,0.625,-0.265625
1695730118629,-0.009033203,-0.9981079,0.12640381,-4.296875,-1.671875,-1.21875
1695730118674,0.0146484375,-1.0159302,0.08782959,-8.859375,-1.34375,-2.046875
1695730118703,0.016601562,-1.0130005,0.12689209,-1.140625,-1.546875,-0.5
1695730118752,-0.0061035156,-1.0130005,0.11126709,-5.359375,-3.109375,-1.296875
1695730118809,-0.044677734,-1.0203247,0.16571045,-3.09375,-0.484375,-0.8125
1695730118824,-0.051757812,-1.0110474,0.14642334,2.90625,0.984375,-1.953125
1695730118869,-0.03515625,-0.9819946,0.14520264,-2.03125,1.71875,0.609375
1695730118915,-0.0012207031,-0.9602661,0.14056396,-3.984375,3.859375,2.125
1695730118943,0.014404297,-1.0269165,0.16448975,-0.90625,2.09375,2.90625
1695730118988,-0.0029296875,-1.0049438,0.1305542,-2.1875,1.484375,0.9375
1695730119018,4.8828125E-4,-0.9890747,0.14031982,1.453125,4.859375,-0.203125
1695730119079,0.01953125,-1.0076294,0.12908936,-1.890625,5.34375,-0.78125
1695730119109,0.042236328,-1.006897,0.14959717,3.15625,2.515625,1.078125
1695730119139,-0.017089844,-1.0012817,0.14544678,2.125,0.03125,-0.03125
1695730119184,-0.008300781,-1.0220337,0.10369873,-2.71875,1.28125,-1.890625
1695730119230,-0.0034179688,-1.0271606,0.1359253,4.75,2.359375,1.578125
1695730119259,-0.020751953,-1.0032349,0.14447021,4.328125,3.0625,0.71875
1695730119304,-0.020263672,-0.9927368,0.11883545,2.515625,-0.3125,-1.1875
1695730119333,0.018310547,-1.0220337,0.11810303,2.6875,5.828125,2.546875
1695730119379,-0.013427734,-1.0286255,0.11785889,1.90625,-0.140625,-0.859375
1695730119425,-0.02734375,-0.9866333,0.10418701,0.25,3.203125,-0.640625
1695730119455,0.01928711,-1.0305786,0.11883545,2.046875,1.84375,2.375
1695730119500,-0.012207031,-0.9915161,0.1005249,2.25,0.96875,-0.984375
1695730119545,-0.012451172,-1.000061,0.08392334,-3.28125,-0.515625,-0.0625
1695730119574,0.017089844,-1.0117798,0.09442139,-6.078125,0.15625,0.609375
1695730119619,9.765625E-4,-1.0234985,0.13006592,2.21875,0.1875,0.046875
1695730119664,-0.03881836,-1.0151978,0.09857178,2.34375,3.15625,0.359375
1695730119694,-9.765625E-4,-0.96099854,0.13543701,1.265625,3.109375,1.15625
1695730119739,0.025634766,-0.99786377,0.13690186,-0.59375,2.765625,3.671875
1695730119769,-0.0036621094,-1.0095825,0.11639404,-2.625,2.140625,0.140625
1695730119814,0.014892578,-1.0232544,0.11517334,-1.0,3.546875,-1.125
1695730119859,0.006591797,-1.0093384,0.124694824,-1.328125,4.0,1.9375
1695730119889,0.019042969,-0.9963989,0.10467529,0.90625,4.34375,1.296875
1695730119935,0.024169922,-1.0029907,0.10809326,-0.765625,0.921875,-1.65625
1695730119979,0.008544922,-1.0122681,0.109313965,1.125,1.734375,0.296875
1695730120009,0.010253906,-1.0276489,0.10028076,-0.921875,-0.609375,-0.8125
1695730120055,0.010498047,-0.99420166,0.0914917,0.046875,-0.03125,-1.296875
1695730120084,-0.008300781,-1.0032349,0.121520996,1.75,1.9375,0.765625
1695730120128,-0.028564453,-1.022522,0.09051514,-0.109375,0.21875,-1.140625
1695730120174,0.0063476562,-0.9990845,0.12640381,-2.34375,1.203125,0.28125
1695730120204,0.018310547,-1.0066528,0.09246826,-0.203125,1.953125,-1.09375
1695730120249,-0.0031738281,-1.0249634,0.093444824,-4.03125,-0.53125,-2.15625
1695730120309,0.0075683594,-1.0032349,0.11126709,0.3125,-1.109375,-0.046875
1695730120325,0.020263672,-1.0169067,0.11224365,-6.03125,-3.421875,-2.25
1695730120369,-0.026611328,-1.0003052,0.12713623,-7.234375,-5.953125,-0.015625
1695730120403,-0.060302734,-1.0076294,0.19622803,-21.015625,-0.71875,-0.640625
1695730120445,-0.19335938,-0.9507446,0.25286865,-4.53125,3.265625,-7.28125
1695730120489,0.022460938,-1.0234985,0.055847168,38.140625,20.359375,-8.96875
1695730120522,0.2836914,-0.9834595,0.04925537,27.125,14.515625,13.984375
1695730120564,0.04248047,-0.9837036,0.009460449,1.140625,-17.171875,14.765625
1695730120639,-0.1665039,-1.1213989,0.13861084,23.859375,-6.015625,-0.734375
1695730120642,0.049804688,-1.0042114,0.066833496,-18.0,4.9375,-0.09375
1695730120687,0.043701172,-0.91729736,0.002380371,5.984375,-2.9375,6.546875
1695730120715,0.030517578,-1.0488892,0.07171631,-4.625,4.609375,-0.625
1695730120760,0.0014648438,-1.0440063,0.07513428,-6.3125,-2.453125,-2.203125
1695730120805,0.0063476562,-1.0049438,0.05218506,2.75,-0.0625,-2.53125
1695730120836,-0.0126953125,-0.9595337,0.06072998,-4.65625,-1.265625,-0.265625
1695730120879,0.0024414062,-1.0288696,0.078552246,-5.96875,-0.25,0.6875
1695730120924,0.021728516,-1.0303345,0.13079834,-5.4375,-1.046875,0.46875
1695730120954,0.0056152344,-1.0203247,0.07904053,0.828125,0.0625,-0.53125
1695730120999,0.020263672,-0.9702759,0.10760498,-6.703125,-1.640625,0.421875
1695730121029,0.014892578,-1.000061,0.10076904,-6.328125,1.75,-0.625
1695730121074,0.045654297,-1.0413208,0.08123779,2.546875,2.359375,-0.265625
1695730121119,0.013671875,-0.9961548,0.11639404,1.15625,-2.40625,-0.046875
1695730121179,-0.0107421875,-0.9902954,0.10784912,-1.046875,-4.359375,1.21875
1695730121194,-0.06274414,-1.0064087,0.09539795,-6.15625,1.546875,-1.640625
1695730121239,0.04321289,-1.0393677,0.121032715,-0.125,5.890625,0.59375
1695730121269,0.04711914,-1.0054321,0.1149292,8.203125,4.859375,2.671875
1695730121314,0.028076172,-0.99224854,0.12542725,4.8125,1.6875,1.96875
1695730121345,-0.022216797,-1.0178833,0.0758667,2.78125,1.828125,0.609375
1695730121389,0.024414062,-0.99005127,0.07635498,0.78125,5.328125,1.078125
1695730121434,0.053710938,-1.0134888,0.1083374,4.375,4.75,2.28125
1695730121465,0.034179688,-1.0027466,0.06854248,-0.703125,1.359375,-2.125
1695730121508,0.0053710938,-1.0025024,0.06121826,-0.078125,0.609375,1.359375
1695730121553,0.03173828,-1.0215454,0.077819824,-5.296875,-0.921875,-0.296875
1695730121584,0.021728516,-0.9990845,0.08099365,-1.328125,2.5625,-0.9375
1695730121629,0.030029297,-1.0271606,0.0680542,-1.671875,1.828125,-1.953125
1695730121659,0.0056152344,-1.0110474,0.105163574,0.0625,0.3125,0.015625
1695730121705,-0.008300781,-0.9915161,0.08294678,1.0625,0.21875,0.984375
1695730121749,0.014892578,-1.0027466,0.07659912,-2.4375,4.890625,-1.078125
1695730121779,-0.0021972656,-1.0291138,0.081726074,2.46875,0.546875,1.765625
1695730121824,0.040771484,-1.0112915,0.11273193,-0.59375,3.640625,1.015625
1695730121868,0.004638672,-0.9883423,0.07196045,2.578125,-1.90625,-0.078125
1695730121899,0.0078125,-0.99835205,0.07318115,-2.515625,0.90625,0.828125
1695730121945,0.029785156,-1.0510864,0.09613037,-4.8125,-1.390625,-0.71875
1695730121974,0.0078125,-1.0076294,0.10101318,7.90625,2.390625,-0.421875
1695730122019,-0.012451172,-1.0112915,0.10028076,5.375,5.703125,4.25
1695730122065,0.001953125,-0.9758911,0.066345215,4.640625,6.40625,-0.390625
1695730122094,0.07763672,-1.0281372,0.089538574,3.265625,6.25,3.328125
1695730122139,0.019042969,-0.98760986,0.086120605,8.125,3.984375,1.765625
1695730122185,-0.014892578,-0.98760986,0.009216309,-1.453125,5.28125,-0.453125
1695730122215,0.08886719,-1.0166626,0.061950684,-3.703125,5.703125,1.6875
1695730122259,0.045410156,-1.0269165,0.057800293,5.953125,3.828125,0.890625
1695730122288,-7.324219E-4,-0.973938,0.004333496,0.890625,3.0,0.578125
1695730122335,0.061035156,-0.9973755,0.03656006,-1.1875,1.984375,-0.328125
1695730122379,0.033447266,-1.0007935,0.03265381,-4.703125,-2.015625,-1.09375
1695730122411,0.017578125,-1.0166626,0.0211792,-3.0625,-0.78125,-1.59375
1695730122453,0.025146484,-1.0037231,0.058288574,-1.828125,-2.40625,-0.4375
1695730122498,0.0068359375,-1.0015259,0.06414795,-0.203125,-1.296875,0.265625
1695730122528,0.02368164,-1.0176392,0.05316162,-3.296875,1.515625,-2.78125
1695730122588,0.041015625,-1.0164185,0.06072998,0.671875,0.8125,-0.796875
1695730122606,0.03564453,-1.0315552,0.05731201,-3.171875,-1.96875,2.078125
1695730122648,0.0068359375,-1.0300903,0.070495605,-1.21875,-3.90625,-3.9375
1695730122701,-0.032470703,-0.9990845,0.074645996,0.59375,-1.453125,-0.671875
1695730122723,-0.0034179688,-0.9829712,0.10443115,1.09375,3.625,1.0
1695730122769,0.007080078,-0.9924927,0.08099365,-3.890625,1.046875,0.015625
1695730122814,0.055664062,-1.0093384,0.09857178,-9.671875,0.8125,-2.28125
1695730122843,0.041015625,-1.0496216,0.09857178,-12.15625,1.171875,-1.78125
1695730122889,-0.0078125,-0.9483032,0.121520996,-12.734375,-4.34375,-0.0625
1695730122919,-0.024902344,-0.9639282,0.12249756,-15.53125,-0.890625,-2.34375
1695730122965,0.092041016,-1.0479126,0.16351318,-2.40625,6.71875,-5.84375
1695730123009,0.0021972656,-0.9949341,0.11810303,19.921875,2.046875,8.671875
1695730123039,-0.015625,-1.0049438,0.051452637,-2.921875,5.046875,2.921875
1695730123086,0.005126953,-1.0484009,0.032165527,-6.21875,4.546875,-5.859375
1695730123145,0.040283203,-1.0601196,0.15789795,39.921875,6.90625,3.359375
1695730123159,0.015380859,-0.9951782,0.1227417,20.328125,2.421875,5.1875
1695730123206,-0.068115234,-0.9768677,-0.021057129,-9.3125,3.96875,-1.296875
1695730123250,0.045166016,-1.0110474,-0.026184082,8.671875,7.53125,-6.578125
1695730123279,0.08154297,-1.0410767,0.05682373,10.625,-2.5,5.296875
1695730123326,0.0034179688,-0.96099854,-0.024719238,-6.546875,-5.109375,1.125
1695730123354,0.10205078,-0.9619751,-0.04058838,5.953125,-6.921875,-0.03125
1695730123399,0.043945312,-1.0132446,0.02508545,-10.5625,-12.65625,3.078125
1695730123459,-0.08178711,-1.008606,0.07904053,-1.59375,-18.171875,4.171875
1695730123474,-0.010253906,-1.081604,0.038757324,-17.171875,-4.046875,-4.359375
1695730123520,0.02319336,-1.0144653,0.05682373,-6.09375,6.03125,-9.265625
1695730123565,0.007080078,-0.97369385,0.06048584,7.90625,0.203125,2.125
1695730123596,0.017578125,-0.960022,0.09246826,-9.828125,-2.125,2.125
1695730123639,0.030761719,-1.0310669,0.097595215,-11.140625,-3.640625,-2.375
1695730123670,0.011962891,-1.0178833,0.07904053,-0.3125,3.328125,-1.984375
1695730123714,-0.017578125,-1.0037231,0.073913574,1.515625,4.03125,1.03125
1695730123759,0.040283203,-0.9949341,0.07757568,-3.6875,3.65625,0.015625
1695730123791,0.045410156,-0.9849243,0.08392334,0.0625,1.734375,1.59375
1695730123835,0.009521484,-1.015686,0.05657959,-4.03125,1.3125,-0.5625
1695730123940,0.008056641,-1.019104,0.08074951,3.109375,0.59375,1.453125
1695730123942,0.010009766,-1.0149536,0.08905029,-2.03125,-4.453125,0.34375
1695730123954,-9.765625E-4,-0.97369385,0.08685303,-0.84375,2.640625,-1.84375
1695730124030,0.028564453,-1.0247192,0.07513428,2.796875,0.671875,-0.03125
1695730124032,0.025878906,-1.0215454,0.08123779,1.84375,-1.265625,1.796875
1695730124074,-0.008544922,-0.99298096,0.093688965,-2.125,-3.65625,-0.953125
1695730124104,-7.324219E-4,-1.0108032,0.09881592,-5.53125,-0.15625,-1.921875
1695730124149,0.037109375,-1.0130005,0.066589355,-3.5,-1.015625,-0.0625
1695730124194,0.031982422,-1.0100708,0.09661865,-0.75,-4.34375,-0.25
1695730124223,-0.013183594,-1.0015259,0.07659912,-5.359375,-5.265625,-2.15625
1695730124271,-0.0073242188,-1.0151978,0.121520996,-3.71875,-0.078125,-1.875
1695730124299,-0.036865234,-0.99468994,0.08758545,-2.265625,1.359375,-3.390625
1695730124344,0.014160156,-1.003479,0.1071167,4.734375,8.90625,1.296875
1695730124389,0.020019531,-1.0274048,0.101989746,-1.90625,2.265625,4.265625
1695730124434,-0.0021972656,-0.9932251,0.11419678,-5.765625,0.46875,0.8125
1695730124465,-0.008056641,-0.9859009,0.13470459,-1.875,4.015625,-0.125
1695730124509,0.012451172,-1.0169067,0.10491943,-6.0,3.09375,-0.53125
1695730124540,0.043945312,-1.0230103,0.113464355,0.921875,2.953125,0.21875
1695730124584,0.02709961,-0.9841919,0.13543701,0.421875,-1.296875,-1.796875
1695730124616,0.0021972656,-0.9898071,0.09710693,-5.546875,0.15625,0.734375
1695730124659,0.025146484,-1.0100708,0.12030029,1.96875,-0.765625,1.21875
1695730124704,0.011962891,-1.0200806,0.14056396,0.34375,2.015625,1.0
1695730124734,0.012939453,-1.0093384,0.12225342,-2.296875,-0.015625,0.375
1695730124778,0.017089844,-0.9973755,0.1227417,-0.859375,-0.8125,0.921875
1695730124824,0.009277344,-1.0025024,0.11419678,-2.1875,0.125,-0.75
1695730124854,0.022216797,-1.0220337,0.10736084,-3.265625,-3.140625,0.234375
1695730124899,0.024658203,-1.0039673,0.14251709,-5.140625,-0.28125,1.15625
1695730124929,-7.324219E-4,-1.0220337,0.12835693,2.796875,-4.46875,-0.96875
1695730124974,-0.017578125,-1.020813,0.14251709,-5.421875,-0.265625,-3.015625
1695730125019,-0.060058594,-0.9951782,0.16082764,1.640625,-1.0,-0.75
1695730125049,-0.045410156,-0.9883423,0.14813232,-7.328125,0.328125,-1.78125
1695730125094,-0.0056152344,-0.9636841,0.16253662,-3.03125,3.96875,0.25
1695730125139,0.052490234,-1.048645,0.168396,-5.390625,4.765625,-0.5
1695730125169,0.013427734,-1.0298462,0.15081787,5.734375,3.109375,-0.28125
1695730125229,-0.018066406,-0.9763794,0.15179443,8.890625,6.796875,0.46875
1695730125244,0.015136719,-0.9932251,0.12176514,-6.515625,6.0,0.25
1695730125320,0.017089844,-0.9829712,0.13763428,1.015625,1.8125,-0.28125
1695730125341,0.022949219,-1.0130005,0.12908936,-0.71875,2.46875,-0.484375
1695730125363,0.011474609,-1.029602,0.13397217,-2.65625,1.328125,-0.34375
1695730125409,-0.0061035156,-1.0159302,0.15374756,4.078125,-2.734375,0.8125
1695730125454,-0.01928711,-0.99298096,0.1359253,-5.75,-1.90625,-0.03125
1695730125485,0.013427734,-0.9741821,0.11029053,-9.8125,1.734375,-2.421875
1695730125544,0.018798828,-1.0557251,0.17547607,-3.03125,0.484375,1.359375
1695730125559,-0.019042969,-1.00177,0.16619873,-3.65625,-3.453125,-2.703125
1695730125619,-0.018798828,-0.9661255,0.16400146,0.953125,-1.59375,1.15625
1695730125649,-0.0029296875,-1.0105591,0.18328857,-8.484375,-2.828125,-1.484375
1695730125679,-0.046142578,-1.0393677,0.18670654,-1.171875,-0.40625,-1.5
1695730125725,-0.06689453,-0.9717407,0.20477295,-1.5,-0.890625,-1.984375
1695730125769,0.0021972656,-0.98931885,0.20599365,-5.765625,1.96875,1.375
1695730125799,0.030029297,-0.9985962,0.20111084,-4.453125,0.328125,-1.5
1695730125850,-0.03100586,-1.0073853,0.20721436,-4.609375,1.0625,-0.875
1695730125872,-0.048828125,-0.9776001,0.21820068,-3.28125,2.625,-2.46875
1695730125918,-0.03100586,-0.97003174,0.24871826,9.703125,11.984375,0.84375
1695730125978,0.0073242188,-1.0281372,0.184021,22.125,13.1875,0.6875
1695730125993,-0.053710938,-0.97540283,0.082214355,5.046875,1.765625,3.515625
1695730126054,0.06274414,-0.97320557,0.11395264,11.796875,8.34375,4.6875
1695730126084,0.0703125,-1.125061,0.12640381,16.03125,12.984375,3.53125
1695730126113,-0.07055664,-1.0181274,0.055603027,14.015625,-4.1875,2.4375
1695730126159,0.03149414,-0.9356079,0.06414795,13.15625,2.28125,3.640625
1695730126188,0.056396484,-1.0120239,0.059020996,-2.5,-1.671875,2.5
1695730126235,0.017578125,-1.031311,0.05267334,3.890625,-8.265625,-1.859375
1695730126278,0.012207031,-0.9871216,0.0836792,-7.359375,-7.984375,2.53125
1695730126310,-0.004638672,-1.0171509,0.101501465,-12.078125,-7.84375,-1.046875
1695730126354,0.0087890625,-1.0481567,0.109313965,5.140625,2.15625,-7.453125
1695730126399,0.015136719,-0.9985962,0.097351074,6.5625,0.25,0.8125
1695730126429,-0.01586914,-0.9649048,0.13812256,-5.25,-8.84375,3.46875
1695730126488,-0.040527344,-0.96759033,0.09173584,-11.421875,-3.09375,-3.015625
1695730126502,0.0126953125,-1.0239868,0.085632324,-3.765625,6.25,-2.328125
1695730126549,0.046142578,-1.0283813,0.12957764,3.53125,3.65625,6.671875
1695730126594,-9.765625E-4,-1.010315,0.11859131,0.59375,0.375,-0.359375
1695730126624,-0.01953125,-1.0078735,0.08074951,3.53125,4.3125,-0.171875
1695730126670,0.033447266,-0.9871216,0.101989746,3.359375,2.46875,1.0625
1695730126715,-0.0034179688,-0.98565674,0.09295654,0.015625,2.390625,1.0625
1695730126744,-0.0024414062,-1.0166626,0.08465576,-0.421875,0.71875,-1.015625
1695730126789,0.032470703,-1.0215454,0.07269287,-8.28125,3.84375,0.921875
1695730126818,0.057617188,-0.9927368,0.11785889,-0.1875,1.203125,-0.265625
1695730126864,0.007080078,-0.99468994,0.09490967,5.734375,2.328125,1.265625
1695730126909,0.0017089844,-1.0164185,0.09637451,-4.84375,-0.265625,-0.09375
1695730126939,0.0068359375,-1.0061646,0.10809326,-2.078125,-0.125,-2.546875
1695730126985,-0.0061035156,-1.0029907,0.08343506,-0.625,-0.6875,-0.5
1695730127029,0.036865234,-1.0046997,0.09881592,-8.78125,-0.375,-1.375
1695730127059,0.032226562,-1.0247192,0.14007568,2.640625,-2.921875,-0.453125
1695730127104,-0.044433594,-0.98394775,0.11639404,-8.84375,-7.171875,-0.875
1695730127149,0.0017089844,-1.010315,0.13372803,-8.75,-1.53125,-3.0625
1695730127194,-0.021484375,-1.0137329,0.14593506,-1.328125,-0.890625,-4.828125
1695730127224,-0.028076172,-0.98272705,0.1449585,-1.9375,4.703125,-0.484375
1695730127253,0.0041503906,-1.0147095,0.14935303,3.34375,4.671875,5.53125
1695730127301,-4.8828125E-4,-0.9800415,0.14422607,-3.609375,0.65625,-0.109375
1695730127344,0.0031738281,-1.0276489,0.13031006,3.09375,2.90625,0.203125
1695730127374,0.011474609,-1.0166626,0.1329956,1.59375,3.03125,0.6875
1695730127419,-0.0126953125,-0.9956665,0.124694824,1.96875,2.4375,-0.34375
1695730127464,-0.0048828125,-0.98028564,0.109802246,2.515625,1.828125,-0.484375
1695730127498,0.05029297,-1.0171509,0.11077881,-0.84375,4.859375,0.9375
1695730127539,0.022216797,-1.0132446,0.113220215,-3.109375,-1.96875,2.34375
1695730127570,-0.014892578,-0.99786377,0.1239624,-2.328125,1.484375,-0.375
1695730127614,0.0061035156,-1.015686,0.11224365,0.8125,2.6875,-0.421875
1695730127659,0.0024414062,-1.0015259,0.116882324,-3.125,1.375,2.0
1695730127689,0.021484375,-1.0154419,0.13861084,1.6875,-1.46875,0.375
1695730127735,-0.026611328,-1.0193481,0.109558105,-3.5625,-1.015625,-1.5
1695730127779,-0.004638672,-1.0198364,0.1473999,1.421875,-2.5,-0.078125
1695730127809,-0.024169922,-1.0012817,0.14886475,-0.671875,2.125,0.921875
1695730127854,-0.024414062,-1.0134888,0.14666748,5.546875,1.9375,-1.421875
1695730127884,-0.007080078,-0.9817505,0.13470459,-2.03125,4.875,1.109375
1695730127930,-0.020019531,-0.99298096,0.12786865,6.9375,5.71875,4.734375
1695730127974,0.018310547,-1.0274048,0.12860107,2.046875,6.28125,3.015625
1695730128005,0.05126953,-1.0293579,0.121276855,4.84375,7.078125,1.4375
1695730128049,0.021484375,-0.9932251,0.10491943,4.296875,4.578125,0.671875
1695730128126,0.013427734,-1.0081177,0.085632324,-3.265625,4.71875,0.328125
1695730128128,0.028808594,-0.97662354,0.081970215,-6.890625,0.40625,-0.625
1695730128184,0.052978516,-1.0059204,0.07977295,0.21875,3.921875,1.21875
1695730128199,0.017089844,-1.0205688,0.09564209,0.671875,2.125,-0.359375
1695730128244,0.016601562,-1.0276489,0.0848999,4.0,-1.609375,0.578125
1695730128289,0.018310547,-0.9846802,0.10321045,-4.4375,-1.0,-3.03125
1695730128319,-0.0126953125,-1.0137329,0.08758545,0.625,1.578125,-0.9375
1695730128366,0.020019531,-1.013977,0.11199951,-6.625,-3.515625,-1.28125
1695730128409,0.024902344,-1.0195923,0.13006592,-2.0,-0.203125,-3.15625
1695730128439,-0.030761719,-0.9990845,0.1239624,-1.203125,-2.546875,-0.984375
1695730128485,-0.021240234,-0.97076416,0.11907959,-2.765625,-1.484375,-1.515625
1695730128514,0.025634766,-1.0247192,0.11834717,-10.1875,-2.96875,-1.0
1695730128560,-0.027832031,-1.0383911,0.152771,-0.9375,-0.515625,0.109375
1695730128604,-0.045898438,-1.0420532,0.15081787,1.640625,2.828125,1.609375
1695730128634,-0.041259766,-0.96466064,0.1408081,5.265625,1.859375,-0.359375
1695730128679,0.01586914,-0.98101807,0.1329956,-7.6875,1.328125,0.09375
1695730128723,9.765625E-4,-1.0149536,0.15106201,-5.953125,2.34375,2.265625
1695730128754,0.0026855469,-1.0337524,0.16033936,-2.8125,-0.609375,-0.59375
1695730128800,-0.028320312,-0.99786377,0.14398193,2.953125,3.578125,-1.140625
1695730128828,0.011962891,-0.9819946,0.124938965,-1.78125,3.234375,0.859375
1695730128873,0.016113281,-0.9819946,0.14447021,-4.640625,2.28125,-0.84375
1695730128919,0.020996094,-1.0276489,0.15228271,-4.59375,0.828125,-0.046875
1695730128949,-0.013427734,-0.9985962,0.14642334,-5.09375,-0.859375,0.578125
1695730128995,0.01171875,-0.98223877,0.15887451,-8.734375,1.4375,-0.9375
1695730129039,-0.029296875,-1.0027466,0.22723389,-23.671875,1.421875,-2.96875
1695730129070,-0.053955078,-0.97247314,0.24627686,-14.65625,3.546875,-7.1875
1695730129115,0.045410156,-1.0466919,0.20355225,24.625,5.265625,2.390625
1695730129145,0.010498047,-0.9924927,0.1798706,10.375,3.25,7.859375
1695730129189,-0.010986328,-1.0276489,0.14788818,-2.859375,-0.796875,-4.40625
1695730129234,-0.045166016,-1.0181274,0.18206787,9.0,2.375,-0.390625
1695730129264,0.009521484,-1.0425415,0.12420654,-1.0,-0.546875,4.046875
1695730129309,0.09423828,-0.9451294,0.046081543,-8.28125,-3.390625,0.40625
1695730129355,0.04638672,-1.0581665,0.15618896,19.5625,-7.375,3.34375
1695730129384,-0.07104492,-1.0239868,0.24359131,-3.484375,-8.71875,2.3125
1695730129430,-0.07080078,-0.94415283,0.17230225,-8.421875,-13.390625,-0.1875
1695730129459,-0.053222656,-1.0056763,0.1642456,-5.921875,3.609375,-2.46875
1695730129519,0.032226562,-1.0303345,0.2111206,2.15625,6.75,-2.578125
1695730129549,0.017578125,-0.989563,0.15594482,4.21875,3.171875,2.859375
1695730129579,-0.016601562,-0.9993286,0.17962646,7.671875,-1.203125,2.203125
1695730129625,-0.020996094,-1.0037231,0.1762085,-3.09375,-0.859375,0.046875
1695730129669,0.012207031,-0.9993286,0.14447021,3.484375,0.421875,2.390625
1695730129698,0.018066406,-1.0025024,0.13543701,0.828125,3.53125,1.671875
1695730129761,0.0041503906,-0.9993286,0.14007568,5.109375,0.109375,0.953125
1695730129775,0.01586914,-0.987854,0.15106201,-4.1875,4.03125,1.96875
1695730129821,0.04296875,-1.0325317,0.15179443,3.484375,0.40625,1.828125
1695730129864,0.028564453,-0.9963989,0.11419678,-3.046875,1.28125,0.09375
1695730129894,0.015380859,-0.9937134,0.1383667,3.828125,-0.40625,0.96875
1695730129939,0.008300781,-1.0093384,0.14398193,-2.25,-0.109375,-2.15625
1695730129985,-0.007080078,-1.0169067,0.13861084,1.09375,2.703125,0.140625
1695730130014,-2.4414062E-4,-0.9841919,0.1227417,3.4375,-0.546875,-0.46875
1695730130075,0.018310547,-1.0100708,0.14642334,-3.875,2.390625,-0.671875
1695730130089,0.0068359375,-1.0278931,0.1461792,-0.859375,-0.171875,-0.140625
1695730130137,0.0031738281,-1.0088501,0.15325928,2.65625,0.359375,0.25
1695730130179,-7.324219E-4,-1.0076294,0.14349365,-6.625,-4.65625,-2.234375
1695730130209,0.0061035156,-0.98223877,0.15008545,-10.65625,-0.953125,-1.765625
1695730130255,0.0024414062,-1.0320435,0.1618042,0.296875,-0.296875,-2.328125
1695730130299,-0.044433594,-1.0332642,0.16204834,1.3125,0.96875,-1.53125
1695730130329,-0.022949219,-0.9678345,0.1984253,2.484375,1.921875,2.109375
1695730130374,0.0056152344,-0.9570923,0.15863037,-4.046875,0.78125,0.3125
1695730130434,0.0146484375,-1.0049438,0.15472412,-2.390625,2.5,1.4375
1695730130449,0.0075683594,-1.0584106,0.18572998,2.3125,0.234375,2.4375
1695730130494,-9.765625E-4,-0.9859009,0.15325928,-2.53125,4.46875,-1.359375
1695730130524,0.024902344,-0.987854,0.14764404,6.03125,4.140625,2.546875
1695730130569,0.035888672,-1.0046997,0.14764404,-5.75,2.296875,0.765625
1695730130614,-0.0017089844,-0.9956665,0.1630249,0.171875,2.546875,0.015625
1695730130646,0.0075683594,-1.0349731,0.13494873,1.109375,1.59375,-0.203125
1695730130689,0.030273438,-1.0020142,0.13348389,-2.53125,1.171875,-0.375
1695730130735,0.001953125,-0.99542236,0.16790771,1.671875,-1.78125,-0.328125
1695730130794,0.0068359375,-1.0042114,0.15887451,-5.171875,0.59375,-0.125
1695730130809,-0.0043945312,-1.010315,0.15325928,0.46875,0.703125,0.109375
1695730130839,-0.0029296875,-1.0029907,0.1720581,-0.0625,1.15625,0.15625
1695730130885,0.021484375,-0.99664307,0.1749878,-4.234375,-0.09375,0.078125
1695730130929,0.011474609,-1.0066528,0.15985107,-0.828125,0.90625,-1.625
1695730130959,0.0126953125,-0.99957275,0.18157959,-2.734375,-0.8125,0.21875
1695730131004,0.001953125,-0.98809814,0.1671753,-5.953125,-3.703125,-0.515625
1695730131050,-0.0031738281,-1.0088501,0.17938232,-3.25,-2.015625,-0.296875
1695730131079,0.008300781,-1.0183716,0.19573975,-4.296875,0.171875,-1.453125
1695730131124,-0.028564453,-1.0120239,0.20379639,0.484375,0.828125,-2.03125
1695730131154,-0.020996094,-0.95928955,0.19378662,0.484375,1.125,1.0625
1695730131200,0.0107421875,-0.9817505,0.17840576,-2.90625,2.78125,1.609375
1695730131245,0.034423828,-1.0195923,0.2189331,-1.8125,4.125,1.078125
1695730131275,-0.022949219,-1.0105591,0.17913818,8.03125,2.625,0.9375
1695730131319,-0.004638672,-0.9927368,0.18328857,-3.125,3.890625,0.0
1695730131367,0.030761719,-0.9783325,0.18499756,-0.28125,3.609375,-0.078125
1695730131398,0.024658203,-1.0137329,0.17474365,3.953125,1.5625,0.40625
1695730131438,9.765625E-4,-1.0064087,0.1720581,-0.90625,0.6875,0.09375
1695730131468,-0.011230469,-1.0039673,0.16888428,4.71875,1.3125,0.859375
1695730131514,0.0126953125,-1.0188599,0.17254639,0.765625,3.03125,0.28125
1695730131561,-0.005126953,-0.9890747,0.15496826,4.21875,0.15625,0.90625
1695730131590,0.0029296875,-1.0061646,0.17303467,0.171875,1.546875,1.0
1695730131634,9.765625E-4,-1.0178833,0.15911865,0.84375,1.5,-0.390625
1695730131679,0.005126953,-1.0166626,0.15057373,5.359375,2.875,1.234375
1695730131709,0.014404297,-0.989563,0.15570068,-0.359375,1.3125,-0.0625
1695730131757,0.0146484375,-0.9927368,0.14666748,2.328125,2.328125,-1.046875
1695730131798,0.012207031,-1.0327759,0.17034912,-1.984375,-0.21875,-0.65625
1695730131859,0.0061035156,-0.9859009,0.1515503,-4.234375,-1.53125,-2.171875
1695730131874,0.0056152344,-1.0073853,0.14300537,2.46875,0.53125,-0.265625
1695730131919,-0.009033203,-1.0022583,0.15570068,-4.171875,-0.65625,-2.8125
1695730131949,-0.034179688,-1.0088501,0.1593628,1.171875,-0.078125,0.953125
1695730131994,0.018554688,-0.9956665,0.18182373,-4.171875,3.046875,-0.171875
1695730132024,-0.009521484,-0.98028564,0.17547607,3.625,3.0,2.28125
1695730132069,0.024902344,-1.0039673,0.16693115,-5.296875,0.765625,0.828125
1695730132098,-0.016601562,-1.0098267,0.16595459,1.109375,1.96875,0.203125
1695730132143,0.0024414062,-1.006897,0.16741943,-4.921875,1.859375,-0.28125
1695730132189,0.024414062,-1.0015259,0.17474365,-6.421875,0.546875,-0.265625
1695730132219,0.008056641,-0.9898071,0.18035889,-4.9375,-0.890625,-2.875
1695730132293,-0.028808594,-0.9963989,0.18597412,-7.265625,-1.8125,-0.6875
1695730132310,-0.051757812,-0.9849243,0.24017334,-18.875,-2.6875,-3.015625
1695730132341,-0.06762695,-0.9627075,0.2597046,-15.0,3.5625,-5.296875
1695730132385,0.053955078,-1.008606,0.21502686,28.546875,5.90625,0.8125
1695730132414,-0.021240234,-1.0249634,0.21478271,18.140625,7.140625,5.953125
1695730132460,-0.02734375,-0.9902954,0.11859131,8.25,-0.9375,4.796875
1695730132505,0.008300781,-1.0200806,0.16204834,20.703125,5.5625,0.328125
1695730132534,0.049316406,-1.034729,0.11248779,6.671875,-4.296875,4.5
1695730132579,0.021240234,-0.9859009,0.05633545,-7.984375,-3.203125,-0.921875
1695730132625,0.012939453,-1.0527954,0.12615967,11.796875,-2.484375,2.84375
1695730132654,0.020507812,-0.9758911,0.1593628,-9.71875,-7.75,-0.71875
1695730132699,0.012939453,-1.0037231,0.1359253,-5.625,-6.9375,0.515625
1695730132728,-0.030029297,-1.0325317,0.13763428,-3.765625,-4.375,-3.515625
1695730132776,-0.012451172,-1.0176392,0.18743896,2.375,0.21875,-1.9375
1695730132819,-0.034423828,-0.9902954,0.13983154,2.96875,0.21875,0.328125
1695730132849,-0.041992188,-0.96099854,0.14056396,-3.625,1.203125,-0.796875
1695730132893,0.025146484,-1.0020142,0.14666748,-0.1875,1.84375,1.203125
1695730132948,0.03491211,-1.036438,0.168396,-0.265625,3.6875,4.40625
1695730132967,-0.022460938,-0.98565674,0.11956787,4.265625,1.265625,-0.28125
1695730133016,0.0068359375,-1.0256958,0.13226318,2.0,5.6875,0.515625
1695730133048,0.020996094,-1.015686,0.16448975,1.09375,5.5,1.671875
1695730133089,-0.018066406,-0.98809814,0.105163574,4.734375,2.40625,0.71875
1695730133135,0.026367188,-1.0073853,0.12445068,0.421875,6.125,1.046875
1695730133166,0.0014648438,-1.0032349,0.10296631,-1.875,4.0,2.515625
1695730133209,0.008300781,-1.0181274,0.152771,3.9375,2.609375,2.296875
1695730133254,0.025146484,-1.0083618,0.12591553,-10.84375,-1.875,0.09375
1695730133287,0.010253906,-0.9949341,0.09588623,-4.34375,0.453125,-3.625
1695730133329,0.026611328,-1.0254517,0.16448975,-0.96875,1.265625,-0.75
1695730133359,0.006591797,-1.0010376,0.13861084,-2.75,-2.4375,-0.578125
1695730133404,0.026855469,-0.9920044,0.14324951,-0.75,1.890625,-1.71875
1695730133449,0.009521484,-1.0186157,0.13641357,-4.6875,-1.25,-1.40625
1695730133480,0.011474609,-0.98760986,0.15228271,-7.8125,-2.203125,-1.5
1695730133525,-0.008544922,-0.99713135,0.17645264,-2.890625,-2.234375,-0.3125
1695730133570,-0.009277344,-1.0178833,0.16766357,-5.8125,-4.359375,-1.984375
1695730133599,-0.0041503906,-0.9985962,0.17010498,-2.859375,0.90625,-0.890625
1695730133661,-0.031982422,-1.006897,0.17181396,3.484375,-0.34375,-2.390625
1695730133674,-0.033935547,-0.9951782,0.19036865,-2.1875,2.625,-0.390625
1695730133719,-0.024414062,-0.9890747,0.19769287,2.21875,2.578125,1.359375
1695730133764,-0.014160156,-0.99884033,0.168396,-4.296875,1.609375,-0.25
1695730133810,7.324219E-4,-1.0007935,0.17303467,-0.890625,5.1875,1.375
1695730133855,0.039794922,-1.0315552,0.19281006,-1.4375,3.4375,1.234375
1695730133886,0.0043945312,-0.98101807,0.18084717,0.875,0.75,0.546875
1695730133915,-0.024658203,-1.0042114,0.16229248,-0.640625,0.0,-0.21875
1695730133975,0.009521484,-1.0073853,0.16033936,-4.5,1.484375,-1.5625
1695730133989,0.005126953,-1.010315,0.17376709,-2.21875,2.3125,0.421875
1695730134049,-0.0053710938,-1.0054321,0.19915771,-2.671875,-1.734375,-1.65625
1695730134080,-0.0048828125,-0.9993286,0.18939209,-1.5625,0.765625,-0.234375
1695730134109,-0.013427734,-0.9866333,0.184021,-1.265625,0.5625,0.84375
1695730134154,9.765625E-4,-0.9937134,0.19354248,-6.75,-0.375,-2.453125
1695730134199,-0.012939453,-1.0232544,0.20135498,-1.5,0.65625,0.578125
1695730134244,-0.017089844,-1.0029907,0.19940186,-1.40625,-0.5,-0.625
1695730134274,0.0041503906,-1.0003052,0.20184326,-3.0625,-2.578125,-1.0625
1695730134304,-0.03149414,-0.987854,0.21575928,1.21875,-0.34375,-0.84375
1695730134350,-0.049804688,-1.0120239,0.22088623,0.65625,-0.71875,-0.484375
1695730134394,-0.05102539,-0.98443604,0.20916748,-1.109375,0.34375,-1.453125
1695730134423,0.0036621094,-0.9800415,0.2230835,0.671875,4.40625,2.09375
1695730134468,0.0021972656,-0.989563,0.2062378,-6.0,3.6875,1.359375
1695730134514,0.018310547,-1.0366821,0.19500732,-4.578125,11.15625,-0.546875
1695730134544,0.0021972656,-1.0252075,0.27093506,-1.671875,6.640625,-1.046875
1695730134588,-0.03881836,-0.95928955,0.18157959,0.515625,1.734375,-0.984375
1695730134634,-0.0031738281,-0.9570923,0.1942749,-1.5,4.5625,0.453125
1695730134665,-9.765625E-4,-1.0132446,0.24188232,0.28125,1.953125,0.390625
1695730134710,-0.0073242188,-1.0278931,0.19940186,0.96875,-3.203125,-0.203125
1695730134739,-0.026123047,-0.97320557,0.19598389,1.078125,-1.9375,-0.421875
1695730134784,-0.015625,-1.005188,0.22576904,1.015625,-2.71875,2.28125
1695730134828,-0.018310547,-1.0095825,0.23065186,-2.453125,-2.921875,-0.34375
1695730134858,-0.031982422,-0.991272,0.21258545,-1.59375,-2.53125,-1.34375
1695730134904,0.0036621094,-1.0049438,0.22479248,-3.9375,-0.765625,-1.34375
1695730134949,-0.0087890625,-0.9956665,0.23895264,1.203125,-3.359375,-0.953125
1695730134978,-0.048095703,-1.0039673,0.20111084,-10.265625,-1.296875,-3.0625
1695730135024,-0.013671875,-1.000061,0.25994873,-6.59375,-0.515625,-4.390625
1695730135055,-0.01977539,-0.99884033,0.25164795,12.15625,0.515625,0.3125
1695730135099,-0.052978516,-0.9741821,0.24383545,23.15625,7.125,4.109375
1695730135159,-0.0690918,-0.9837036,0.20941162,16.3125,4.234375,2.296875
1695730135173,-0.044433594,-1.0076294,0.1449585,7.0,1.421875,3.703125
1695730135218,-0.0107421875,-0.9805298,0.15716553,18.734375,10.75,6.0625
1695730135265,0.001953125,-1.0134888,0.15350342,3.578125,-0.53125,7.4375
1695730135294,0.0690918,-0.99884033,0.10394287,-4.828125,6.71875,2.0
1695730135338,-0.0068359375,-1.034729,0.093444824,10.40625,3.296875,3.21875
1695730135385,0.0034179688,-0.9981079,0.097839355,0.296875,-1.59375,1.71875
1695730135414,0.09399414,-1.006897,0.10638428,1.71875,0.0625,2.3125
1695730135458,0.022705078,-1.0088501,0.11199951,2.609375,-2.1875,-0.546875
1695730135505,-0.04345703,-1.005188,0.12835693,-3.015625,-5.046875,1.015625
1695730135534,-0.024414062,-1.0220337,0.12884521,-7.28125,-3.28125,-1.78125
1695730135625,0.022460938,-1.0176392,0.1461792,-6.78125,3.40625,-2.203125
1695730135628,0.032226562,-1.0117798,0.12957764,3.03125,8.703125,-0.921875
1695730135654,-0.005859375,-1.0154419,0.1083374,4.390625,-0.34375,-0.328125
1695730135685,-0.011230469,-0.9973755,0.13250732,0.703125,-0.8125,1.265625
1695730135745,0.011474609,-1.0007935,0.15008545,0.6875,-5.015625,2.296875
1695730135775,0.022460938,-1.0010376,0.11468506,-7.390625,-3.875,-0.546875
1695730135804,0.0056152344,-1.0342407,0.1251831,4.28125,-1.015625,0.484375
1695730135849,-0.021972656,-1.0278931,0.13812256,5.53125,0.296875,-1.1875
1695730135895,-0.023925781,-0.9951782,0.13226318,2.03125,0.5,0.609375
1695730135923,0.018798828,-0.97003174,0.1227417,-4.4375,1.3125,1.8125
1695730135969,0.034179688,-1.0117798,0.12835693,1.953125,3.46875,3.359375
1695730135999,0.0075683594,-1.0396118,0.1305542,6.65625,2.5,2.71875
1695730136045,0.016357422,-0.9873657,0.113220215,-2.28125,3.4375,1.359375
1695730136098,0.020263672,-0.9807739,0.08685303,-0.140625,3.390625,0.421875
1695730136118,0.044433594,-1.0134888,0.13787842,2.78125,6.3125,2.734375
1695730136166,0.06933594,-1.0220337,0.09588623,-8.421875,-0.484375,-1.796875
1695730136207,0.010986328,-0.9812622,0.08831787,-2.3125,1.65625,-2.046875
1695730136238,0.0107421875,-1.0256958,0.121032715,4.1875,2.671875,0.25
1695730136283,0.011474609,-0.99664307,0.105407715,-5.796875,0.953125,-1.796875
1695730136313,0.012451172,-1.0020142,0.121032715,-1.1875,-0.296875,-0.40625
1695730136358,0.026611328,-1.0056763,0.13934326,-3.140625,0.28125,-0.96875
1695730136403,-0.0012207031,-1.0276489,0.10858154,-2.875,-1.546875,-1.5625
1695730136434,0.0,-1.0012817,0.14837646,-4.40625,0.75,-1.8125
1695730136492,0.010986328,-1.0093384,0.14715576,-1.328125,-2.359375,-1.1875
1695730136522,-0.006591797,-0.99591064,0.15032959,-7.53125,-1.640625,-0.21875
1695730136552,0.007080078,-1.013977,0.14764404,-4.828125,-3.390625,-2.84375
1695730136597,-0.036132812,-1.005188,0.14910889,1.78125,0.96875,-1.359375
1695730136628,-0.015136719,-1.0188599,0.15008545,1.21875,2.671875,0.890625
1695730136674,0.014404297,-0.9758911,0.15667725,-3.15625,0.703125,0.109375
1695730136721,0.008300781,-1.0044556,0.16741943,1.140625,2.453125,1.953125
1695730136748,0.012451172,-1.0056763,0.16131592,-6.703125,1.609375,0.03125
1695730136792,0.021972656,-1.003479,0.1317749,0.59375,3.09375,1.0625
1695730136838,0.020996094,-1.0083618,0.15863037,-2.421875,2.28125,1.390625
1695730136868,0.008300781,-1.0093384,0.16009521,-5.265625,2.078125,-1.21875
1695730136913,0.012939453,-1.0105591,0.1564331,1.71875,-0.078125,-2.125
1695730136944,0.0061035156,-1.0110474,0.15252686,-3.96875,1.609375,-1.328125
1695730136989,-0.013671875,-1.0078735,0.18109131,-0.734375,-2.34375,-1.484375
1695730137035,-0.024658203,-0.9951782,0.16741943,-2.046875,1.125,-1.640625
1695730137063,0.005126953,-1.0064087,0.16546631,0.125,-0.359375,0.515625
1695730137109,-0.011474609,-0.98931885,0.17816162,-4.6875,0.1875,-0.25
1695730137155,-0.011230469,-1.0149536,0.19378662,1.34375,0.796875,-0.0625
1695730137188,-0.0043945312,-1.0076294,0.16693115,-6.203125,-2.03125,-2.21875
1695730137228,0.008056641,-0.99542236,0.19354248,1.234375,0.3125,-0.109375
1695730137258,-0.0026855469,-1.0205688,0.18572998,-1.21875,-4.171875,-0.484375
1695730137305,-0.026611328,-0.9985962,0.17156982,-3.65625,0.46875,-2.53125
1695730137348,-0.040039062,-0.9932251,0.22210693,11.03125,0.59375,-0.640625
1695730137379,-0.04663086,-0.98760986,0.20770264,11.21875,6.75,-0.421875
1695730137444,-0.020996094,-0.97979736,0.13885498,3.3125,5.875,3.359375
1695730137468,-0.0041503906,-0.97198486,0.15228271,2.796875,4.828125,5.0
1695730137498,0.009277344,-1.0361938,0.1539917,7.734375,9.421875,3.4375
1695730137543,0.020263672,-1.0408325,0.14349365,6.578125,10.828125,5.0
1695730137574,0.032226562,-0.9898071,0.089538574,-8.84375,2.625,0.53125
1695730137619,0.0061035156,-0.9607544,0.101989746,5.6875,3.828125,-1.609375
1695730137665,0.036621094,-1.0532837,0.10003662,11.078125,-0.3125,1.78125
1695730137693,0.045410156,-0.99005127,0.06488037,-6.546875,-0.21875,3.34375
1695730137740,-0.0063476562,-0.98760986,0.117126465,5.25,-5.640625,-0.203125
1695730137785,0.012939453,-1.0230103,0.14837646,-2.953125,-4.40625,1.125
1695730137817,0.017822266,-1.0281372,0.13616943,-3.21875,-1.375,1.0
1695730137859,-0.0075683594,-0.99468994,0.10003662,-2.328125,-0.90625,-3.46875
1695730137888,0.03125,-1.0039673,0.11029053,-2.484375,-2.0625,-0.875
1695730137933,0.02734375,-1.0181274,0.1486206,-5.265625,-2.796875,-0.5
1695730137978,-0.0029296875,-0.99884033,0.14447021,6.84375,-5.375,-0.75
1695730138007,-0.036132812,-1.0003052,0.13226318,0.359375,-0.578125,1.21875
1695730138054,-0.0053710938,-1.0025024,0.14422607,-1.234375,-1.90625,-0.859375
1695730138098,0.0048828125,-0.9829712,0.109802246,-0.921875,1.875,-1.28125
1695730138128,0.024169922,-1.0132446,0.14666748,2.359375,1.390625,2.28125
1695730138189,0.010253906,-0.9837036,0.11102295,-5.1875,0.90625,1.6875
1695730138221,0.013671875,-1.0288696,0.13519287,8.40625,5.5,3.09375
1695730138249,0.030273438,-1.0134888,0.14471436,1.953125,2.03125,-0.4375
1695730138294,0.0017089844,-0.9885864,0.09954834,-4.703125,1.4375,0.703125
1695730138326,0.026611328,-0.9944458,0.097839355,0.625,1.640625,-1.28125
1695730138369,0.043945312,-1.0569458,0.13104248,-5.625,4.625,-0.5625
1695730138415,0.0073242188,-1.0073853,0.12786865,-2.9375,-2.34375,0.578125
1695730138444,0.02319336,-0.9763794,0.11859131,-7.265625,-1.203125,-1.53125
1695730138489,0.0078125,-0.9944458,0.15008545,-2.875,1.15625,-0.828125
1695730138534,0.026123047,-1.024231,0.13397217,-0.75,2.296875,-0.890625
1695730138566,0.03466797,-1.0088501,0.121032715,-1.484375,0.765625,-0.5
1695730138609,-0.014160156,-0.99298096,0.14788818,1.734375,-0.046875,-0.234375
1695730138640,-0.0075683594,-1.0005493,0.14788818,-0.84375,-0.375,-1.640625
1695730138685,7.324219E-4,-1.0256958,0.12591553,-6.546875,-0.703125,-0.5625
1695730138730,0.02368164,-1.017395,0.16644287,-2.953125,-1.203125,-0.484375
1695730138759,0.0031738281,-0.9885864,0.17523193,0.609375,-2.953125,-0.90625
1695730138805,-0.042236328,-1.0044556,0.15814209,-1.78125,-0.609375,0.0
1695730138849,-0.015136719,-1.0120239,0.16107178,-3.859375,-1.296875,-2.109375
1695730138880,-0.010253906,-0.98883057,0.16741943,-1.703125,1.984375,0.328125
1695730138928,-0.008056641,-0.98760986,0.18597412,0.78125,1.71875,1.9375
1695730138955,0.0107421875,-1.0042114,0.18353271,0.890625,2.671875,2.265625
1695730138999,0.001953125,-1.0027466,0.14984131,-0.953125,2.15625,-0.015625
1695730139046,-0.007080078,-1.0144653,0.18597412,-0.78125,3.546875,-0.765625
1695730139075,0.016357422,-1.0073853,0.15838623,-2.90625,0.875,0.203125
1695730139119,0.010009766,-0.99420166,0.16082764,-4.4375,3.640625,0.125
1695730139195,0.0024414062,-1.0213013,0.16888428,1.015625,0.25,-1.75
1695730139198,0.0063476562,-0.99176025,0.15252686,-3.625,-0.796875,-1.21875
1695730139239,0.001953125,-0.99957275,0.15667725,-1.0625,2.375,0.71875
1695730139269,-0.005859375,-1.0064087,0.18890381,-2.28125,-1.3125,-3.234375
1695730139330,-0.0063476562,-0.9973755,0.16448975,-3.984375,0.015625,-1.21875
1695730139359,-0.026611328,-0.98883057,0.18377686,0.21875,-1.453125,-0.296875
1695730139389,-0.0034179688,-1.0161743,0.17718506,-6.296875,-0.46875,-2.09375
1695730139434,-0.020751953,-0.9981079,0.20892334,-3.703125,1.421875,0.34375
1695730139495,-0.026611328,-1.0213013,0.18817139,-3.1875,-3.0625,-0.984375
1695730139509,-0.012207031,-0.99542236,0.18450928,-1.671875,2.328125,-1.578125
1695730139556,-0.028808594,-1.0105591,0.23358154,3.109375,-0.109375,-0.953125
1695730139586,-0.03930664,-0.99298096,0.20452881,-4.578125,0.921875,-1.0625
1695730139628,-0.02734375,-0.9714966,0.19915771,-1.09375,0.734375,1.21875
1695730139705,-0.008300781,-1.0127563,0.21868896,0.28125,3.59375,0.546875
1695730139708,-0.015136719,-1.0056763,0.21429443,-0.078125,1.34375,0.9375
1695730139751,-0.019042969,-1.0066528,0.20306396,-3.125,0.375,0.125
1695730139794,0.010009766,-0.98809814,0.20843506,-2.546875,-0.203125,-0.953125
1695730139824,-0.037597656,-0.989563,0.20013428,-1.140625,1.25,0.203125
1695730139868,-0.018310547,-1.017395,0.19573975,-2.75,2.328125,-0.34375
1695730139899,0.0068359375,-0.9873657,0.21063232,-0.453125,1.984375,-0.421875
1695730139944,-0.018798828,-1.0127563,0.1984253,-0.34375,0.5625,0.78125
1695730139991,-0.039794922,-1.0054321,0.20404053,-0.8125,0.359375,-1.21875
1695730140021,-0.018310547,-0.99713135,0.2140503,1.671875,1.171875,0.546875
1695730140063,-0.021484375,-1.00177,0.19989014,-5.5,0.390625,-1.625
1695730140108,-0.02368164,-0.99664307,0.21136475,1.609375,-0.25,-1.046875
1695730140139,-0.024902344,-0.9985962,0.21038818,-5.515625,0.015625,-1.171875
1695730140184,-0.018554688,-1.0010376,0.2374878,-0.375,-0.0625,0.125
1695730140230,-0.032714844,-1.0134888,0.22454834,-0.953125,-2.703125,-0.625
1695730140258,-0.028076172,-0.9939575,0.2098999,-6.0625,-0.796875,-0.9375
1695730140303,-0.028808594,-0.9976196,0.23162842,2.234375,-1.4375,-0.53125
1695730140338,-0.016845703,-0.99957275,0.25579834,-2.125,-1.203125,-0.421875
1695730140381,-0.06274414,-0.9741821,0.23284912,0.609375,1.140625,0.453125
1695730140424,-0.059326172,-1.0003052,0.22845459,2.765625,0.125,0.40625
1695730140454,-0.015625,-0.97662354,0.2411499,-2.5625,2.953125,1.875
1695730140499,-0.028320312,-0.9963989,0.2374878,1.984375,3.03125,1.3125
1695730140529,-0.0017089844,-1.0337524,0.22406006,-1.890625,2.859375,0.640625
1695730140573,-0.009033203,-0.9944458,0.22650146,-0.53125,3.265625,-0.40625
1695730140618,-0.033691406,-0.9951782,0.22406006,3.28125,1.09375,-0.390625
1695730140648,-0.038085938,-0.99468994,0.2033081,-0.265625,0.4375,-0.296875
1695730140693,-0.020996094,-0.9956665,0.19818115,-0.734375,1.21875,-0.75
1695730140739,-0.02734375,-1.0137329,0.22113037,4.53125,0.765625,-0.78125
1695730140769,-0.028076172,-1.0093384,0.21063232,3.71875,-0.90625,1.0625
1695730140814,-0.047607422,-0.98516846,0.19085693,-0.765625,-0.15625,-0.125
1695730140844,-0.03173828,-1.0012817,0.22039795,6.53125,1.265625,0.953125
1695730140889,-0.03930664,-1.0105591,0.2267456,6.046875,3.078125,0.765625
1695730140934,-0.05810547,-1.0064087,0.18304443,3.84375,3.59375,0.53125
1695730140964,-0.030273438,-0.99102783,0.2267456,13.828125,5.671875,-2.953125
1695730141010,-0.04248047,-1.0064087,0.15228271,-0.890625,6.40625,3.140625
1695730141054,-0.041259766,-0.991272,0.16522217,9.859375,6.234375,1.671875
1695730141084,0.009033203,-1.0171509,0.14813232,5.453125,6.65625,6.09375
1695730141129,0.015380859,-0.9849243,0.13934326,4.796875,1.625,6.0625
1695730141159,0.033935547,-1.0093384,0.10369873,3.84375,2.125,4.6875
1695730141204,0.03540039,-1.0249634,0.1251831,2.609375,-0.546875,4.453125
1695730141249,0.0012207031,-0.9873657,0.13031006,-2.140625,-4.75,2.203125
1695730141279,0.0021972656,-1.0142212,0.14837646,-3.140625,-1.828125,3.015625
1695730141324,-0.01977539,-1.0217896,0.12860107,-7.375,-2.125,-2.28125
1695730141371,0.025390625,-1.0261841,0.14788818,0.8125,11.09375,-4.28125
1695730141399,0.03564453,-0.9885864,0.1317749,1.578125,3.171875,-2.765625
1695730141444,-0.03125,-0.9649048,0.1317749,0.46875,0.453125,2.671875
1695730141476,-0.025634766,-1.0027466,0.15667725,-5.21875,-2.453125,-0.9375
1695730141520,0.016601562,-1.0479126,0.1605835,-9.109375,-0.96875,-0.640625
1695730141566,0.03125,-1.0029907,0.15008545,-6.46875,-0.921875,-1.078125
1695730141598,-0.0107421875,-0.9939575,0.15032959,-1.75,-1.484375,-0.390625
1695730141639,-0.014160156,-1.0386353,0.18792725,5.96875,-2.59375,0.5625
1695730141684,-0.030273438,-0.9990845,0.15838623,3.25,0.796875,2.046875
1695730141721,0.008056641,-0.9727173,0.16741943,-0.5625,1.796875,1.671875
1695730141773,0.025146484,-0.986145,0.15081787,0.78125,2.71875,3.140625
1695730141790,0.0043945312,-1.0393677,0.137146,4.328125,1.9375,3.15625
1695730141834,0.004638672,-1.0064087,0.1852417,-5.5625,1.78125,-0.09375
1695730141879,0.015380859,-0.98809814,0.18377686,-4.140625,0.390625,0.828125
1695730141910,0.02758789,-0.98638916,0.1383667,-7.640625,1.28125,-1.984375
1695730141952,0.047607422,-1.0254517,0.16351318,4.453125,5.390625,-0.9375
1695730141997,0.027832031,-1.0195923,0.15496826,3.109375,1.171875,-0.671875
1695730142029,-0.017822266,-0.9685669,0.14837646,0.015625,-0.8125,0.609375
1695730142074,-0.007080078,-1.0198364,0.168396,1.109375,0.453125,-0.296875
1695730142105,0.027832031,-1.0020142,0.1642456,-7.515625,-1.390625,-1.96875
1695730142149,0.010498047,-1.0093384,0.14886475,-2.09375,-1.53125,1.40625
1695730142193,0.0034179688,-1.0078735,0.19744873,-4.6875,-2.671875,-2.296875
1695730142223,-0.01171875,-1.0037231,0.17669678,-2.984375,-0.765625,-3.03125
1695730142269,-0.025390625,-0.9932251,0.16864014,-5.21875,-0.6875,-1.859375
1695730142314,0.004638672,-0.9949341,0.21844482,-4.15625,-0.6875,-0.71875
1695730142344,-0.016357422,-1.0076294,0.21453857,-2.078125,-0.4375,-1.625
1695730142391,-0.03930664,-0.98101807,0.17547607,0.671875,0.234375,-2.375
1695730142466,-0.00390625,-0.99420166,0.20819092,-2.0625,2.8125,2.21875
1695730142470,9.765625E-4,-0.98272705,0.2062378,-1.59375,0.765625,1.21875
1695730142512,0.0078125,-0.99102783,0.20721436,1.03125,3.671875,-0.375
1695730142539,0.015136719,-1.0176392,0.19573975,-3.765625,-0.6875,1.0
1695730142599,0.011962891,-0.9968872,0.19647217,-4.125,2.359375,1.109375
1695730142629,-0.018310547,-1.0083618,0.21087646,2.609375,-0.921875,0.15625
1695730142659,0.010498047,-0.9990845,0.18328857,-8.171875,1.421875,-2.0625
1695730142751,-0.0041503906,-0.9985962,0.2164917,2.390625,0.46875,-0.453125
1695730142754,-0.040039062,-1.0132446,0.20941162,-1.765625,-3.515625,-1.734375
1695730142779,-0.0078125,-0.9837036,0.19232178,-2.453125,0.109375,0.0625
1695730142839,-0.013671875,-1.0078735,0.2074585,-1.6875,0.703125,0.421875
1695730142869,-0.025878906,-1.0007935,0.2333374,-1.796875,-1.734375,-2.40625
1695730142899,-0.016357422,-0.9990845,0.215271,0.0625,1.59375,1.921875
1695730142944,-0.0036621094,-1.0166626,0.21453857,-2.0,-0.921875,-1.09375
1695730142975,-0.009277344,-0.99005127,0.2033081,-3.734375,1.734375,-2.71875
1695730143019,-0.024169922,-1.0171509,0.22625732,2.328125,-1.953125,0.25
1695730143065,-0.0107421875,-0.98687744,0.22650146,-4.5625,-0.953125,-0.921875
1695730143094,-0.037841797,-0.98687744,0.22088623,4.15625,1.359375,0.40625
1695730143139,-0.032958984,-1.0037231,0.24432373,-2.328125,2.578125,-1.140625
1695730143169,-0.028320312,-1.0003052,0.22137451,0.0,0.734375,2.1875
1695730143214,-0.046875,-0.97906494,0.24041748,4.84375,6.1875,1.21875
1695730143259,-0.026367188,-0.97662354,0.24969482,11.109375,10.65625,0.109375
1695730143289,-0.009277344,-1.0300903,0.19134521,14.96875,16.296875,1.984375
1695730143334,0.0126953125,-0.99884033,0.10662842,-0.140625,4.1875,2.03125
1695730143380,0.018554688,-0.9866333,0.18475342,20.640625,11.65625,2.28125
1695730143410,0.017822266,-1.0559692,0.14764404,13.234375,8.046875,3.859375
1695730143455,-0.032470703,-0.9963989,0.054382324,0.109375,1.265625,2.71875
1695730143488,0.01586914,-0.9636841,0.10321045,-1.15625,5.5625,1.265625
1695730143532,0.0546875,-1.053772,0.14422607,0.640625,-0.890625,2.125
1695730143574,-0.001953125,-1.0088501,0.09832764,-4.8125,-3.03125,-1.40625
1695730143604,0.018798828,-0.9780884,0.12835693,-5.4375,-1.8125,0.796875
1695730143649,-0.0043945312,-1.0352173,0.17596436,-3.28125,-1.015625,-0.75
1695730143694,-0.02709961,-1.0215454,0.15911865,-1.640625,2.421875,-0.34375
1695730143724,0.021484375,-0.9783325,0.16156006,-4.4375,-3.984375,0.234375
1695730143769,0.024658203,-0.99468994,0.14227295,-5.984375,-1.546875,-0.078125
1695730143799,0.0048828125,-1.0100708,0.16082764,-2.484375,-2.453125,-0.640625
1695730143845,-0.018310547,-1.0332642,0.14398193,-7.6875,0.9375,0.34375
1695730143892,0.014160156,-1.0169067,0.18231201,-2.703125,2.28125,-1.234375
1695730143934,-0.0048828125,-1.0012817,0.18548584,-0.4375,2.28125,-3.265625
1695730143964,-0.026855469,-0.9805298,0.17376709,-2.78125,2.1875,-0.75
1695730144010,-0.009521484,-1.0037231,0.19403076,1.375,0.21875,0.84375
1695730144039,0.0078125,-0.98760986,0.17254639,0.015625,2.234375,1.921875
1695730144106,0.030761719,-1.00177,0.19891357,5.828125,4.875,1.65625
1695730144116,-0.0012207031,-1.0171509,0.13983154,5.015625,2.09375,3.296875
1695730144158,0.04248047,-0.99786377,0.14544678,3.515625,1.328125,3.328125
1695730144204,0.020019531,-1.0005493,0.16009521,2.6875,-1.703125,3.28125
1695730144233,2.4414062E-4,-1.0205688,0.13372803,-0.796875,-2.0625,-1.171875
1695730144279,0.031982422,-1.0122681,0.1383667,-8.203125,-6.21875,0.515625
1695730144324,0.0073242188,-1.0007935,0.19500732,0.65625,-1.375,0.28125
1695730144354,-0.0063476562,-0.99542236,0.14569092,-5.375,-1.484375,-2.59375
1695730144398,0.018310547,-0.99713135,0.16522217,-0.734375,4.640625,-1.171875
1695730144431,0.014404297,-1.0203247,0.17962646,2.609375,-2.6875,0.953125
1695730144477,0.0036621094,-0.99835205,0.16229248,-2.0,-1.171875,-0.453125
1695730144519,0.0061035156,-1.005188,0.184021,0.953125,-0.890625,0.5625
1695730144549,0.008300781,-1.0003052,0.16497803,-9.21875,-2.390625,-2.46875
1695730144594,-0.01953125,-1.005188,0.18353271,-0.875,-5.21875,-0.78125
1695730144641,-0.02368164,-1.005188,0.21673584,-8.75,-1.375,-2.28125
1695730144668,-0.001953125,-0.98443604,0.18792725,-2.046875,1.296875,-1.21875
1695730144714,0.00390625,-1.0142212,0.18865967,0.765625,1.125,1.03125
1695730144743,-0.0034179688,-0.9763794,0.20648193,-5.75,-1.390625,0.34375
1695730144789,-0.018798828,-1.0010376,0.2086792,1.59375,3.796875,0.09375
1695730144835,-0.0026855469,-1.0073853,0.17767334,-3.078125,2.109375,0.1875
1695730144865,0.024658203,-0.9981079,0.20184326,0.375,1.671875,-0.375
1695730144911,0.020996094,-0.9898071,0.17938232,-1.53125,3.765625,1.03125
1695730144955,0.009765625,-1.0151978,0.19866943,4.234375,-1.125,0.734375
1695730144986,0.001953125,-1.0010376,0.18255615,-2.6875,0.21875,-2.609375
1695730145030,-0.016845703,-0.99176025,0.18939209,1.578125,0.71875,-0.265625
1695730145059,0.009277344,-1.0093384,0.18988037,-2.3125,0.484375,0.484375
1695730145104,4.8828125E-4,-1.0083618,0.19256592,-0.390625,-0.15625,-0.171875
1695730145149,-0.025878906,-0.9990845,0.21087646,-1.03125,-0.953125,-1.359375
1695730145178,-0.03173828,-0.99957275,0.20159912,-1.0,2.109375,1.09375
1695730145239,-0.005859375,-1.0117798,0.19915771,-7.484375,-2.765625,-1.53125
1695730145269,-0.020507812,-0.9834595,0.21258545,-1.84375,0.671875,-2.0
1695730145299,-0.020996094,-1.0195923,0.20941162,4.078125,0.90625,0.9375
1695730145345,-0.010253906,-0.9871216,0.20770264,-5.75,-1.171875,-0.546875
1695730145375,-0.021484375,-0.98443604,0.20355225,1.5625,0.25,-0.046875
1695730145419,-0.021484375,-1.0049438,0.22943115,-1.515625,2.8125,0.875
1695730145465,4.8828125E-4,-0.987854,0.22137451,-2.5,1.140625,0.734375
1695730145495,0.019042969,-0.9976196,0.21063232,-0.96875,3.28125,0.640625
1695730145539,0.0068359375,-1.0076294,0.21722412,-0.71875,2.3125,0.515625
1695730145583,-0.006591797,-0.98760986,0.18231201,-2.125,-0.203125,-0.1875
1695730145629,-9.765625E-4,-1.0003052,0.20819092,0.671875,2.78125,0.765625
1695730145658,-0.0041503906,-1.0115356,0.21282959,-0.953125,-1.53125,-2.265625
1695730145704,-0.020263672,-0.99224854,0.20843506,0.734375,1.59375,-1.0625
1695730145735,-0.011474609,-1.0054321,0.21795654,-2.546875,-1.765625,-0.484375
1695730145778,-0.018554688,-1.003479,0.21453857,0.28125,0.0625,-0.09375
1695730145809,-0.024414062,-1.0037231,0.23260498,-1.703125,0.5,-0.65625
1695730145854,-0.016113281,-0.9859009,0.21966553,-3.1875,-0.75,-0.671875
1695730145899,-0.011474609,-1.0073853,0.230896,-1.28125,0.953125,0.34375
1695730145929,-0.005126953,-0.9944458,0.22479248,-1.34375,-0.625,-1.15625
1695730145976,-0.027832031,-0.9981079,0.2255249,0.515625,-0.90625,0.140625
1695730146019,-0.030761719,-0.99957275,0.2411499,-1.234375,-0.921875,-0.109375
1695730146049,-0.021240234,-0.9841919,0.22991943,0.515625,0.34375,-0.265625
1695730146094,-0.036376953,-0.97125244,0.2267456,-2.0,1.203125,0.828125
1695730146125,-0.0063476562,-1.0144653,0.2345581,-2.578125,1.296875,0.0
1695730146169,0.011230469,-1.0056763,0.23602295,-0.234375,3.390625,0.875
1695730146215,0.0029296875,-0.98638916,0.21990967,2.265625,6.0625,-2.078125
1695730146244,-0.0041503906,-0.99346924,0.22894287,0.34375,5.921875,-1.5
1695730146291,-0.045898438,-0.97979736,0.22454834,4.5,2.484375,1.25
1695730146334,-0.0126953125,-0.9990845,0.21038818,-3.09375,3.265625,-0.046875
1695730146365,0.010986328,-1.010315,0.22161865,0.640625,2.125,-1.046875
1695730146409,-0.028808594,-0.99713135,0.22821045,1.734375,-2.609375,-0.171875
1695730146442,-0.045166016,-0.98565674,0.2189331,-1.765625,0.296875,-1.21875
1695730146483,-0.0234375,-0.99542236,0.21917725,4.21875,-1.75,0.734375
1695730146532,-0.017822266,-0.9998169,0.22869873,5.078125,-0.1875,3.328125
1695730146559,-0.013183594,-1.0037231,0.21331787,-5.703125,-1.953125,0.609375
1695730146605,-0.057373047,-1.0088501,0.22503662,-3.5625,-2.15625,-0.046875
1695730146681,9.765625E-4,-1.0137329,0.2140503,9.890625,8.859375,-1.0625
1695730146684,-0.018310547,-1.0215454,0.24871826,13.171875,9.609375,0.875
1695730146724,-0.06542969,-0.96221924,0.19769287,-2.109375,10.6875,-3.203125
1695730146756,-0.012451172,-0.9602661,0.17181396,3.34375,11.828125,-2.03125
1695730146799,0.0146484375,-1.0593872,0.1864624,11.796875,9.359375,4.8125
1695730146847,-0.0031738281,-1.0005493,0.15814209,4.875,4.765625,3.625
1695730146875,-0.008544922,-0.96710205,0.15960693,5.359375,5.359375,3.796875
1695730146919,0.016845703,-1.0305786,0.13079834,0.578125,1.1875,3.40625
1695730146965,0.037353516,-1.0064087,0.10760498,-2.640625,-0.59375,1.015625
1695730146996,0.017089844,-0.9805298,0.14300537,-0.9375,-5.171875,2.296875
1695730147038,0.0,-1.0234985,0.19696045,0.46875,-5.546875,5.078125
1695730147069,-0.033203125,-1.0293579,0.15594482,-10.84375,0.375,-1.828125
1695730147116,-0.0017089844,-1.0061646,0.137146,-4.640625,11.375,-10.46875
1695730147159,0.022705078,-1.0125122,0.16864014,7.453125,6.171875,-1.1875
1695730147192,-0.0041503906,-0.9776001,0.16766357,5.265625,-2.5,6.90625
1695730147234,-0.03100586,-1.0081177,0.17059326,-4.09375,-2.75,-0.921875
1695730147278,-0.028076172,-1.0046997,0.14837646,-8.9375,5.078125,-5.15625
1695730147309,0.03100586,-1.0408325,0.17108154,2.75,-2.84375,2.53125
1695730147354,0.024169922,-0.9961548,0.16131592,7.125,-0.609375,3.84375
1695730147384,-0.019042969,-0.9907837,0.16009521,4.453125,-1.453125,1.96875
1695730147429,-0.010986328,-0.9902954,0.1383667,-0.84375,-3.0,0.203125
1695730147490,0.028564453,-1.0308228,0.14007568,3.125,-3.671875,3.765625
1695730147506,0.018554688,-1.0071411,0.17913818,-0.4375,-6.9375,3.21875
1695730147549,-0.016357422,-0.99224854,0.1515503,-6.015625,0.90625,-1.078125
1695730147595,0.008056641,-0.99468994,0.14886475,3.453125,4.609375,-3.3125
1695730147624,0.015380859,-1.0164185,0.14349365,4.71875,2.109375,-0.09375
1695730147669,0.020751953,-0.99591064,0.13568115,4.0,-3.046875,2.015625
1695730147699,0.011474609,-0.9758911,0.13885498,-2.296875,-0.578125,0.625
1695730147744,0.0029296875,-1.0044556,0.14471436,-4.0625,-1.671875,0.515625
1695730147791,0.037109375,-1.0020142,0.12615967,-3.046875,0.578125,1.4375
1695730147819,0.05908203,-1.0271606,0.16204834,-1.75,-2.421875,1.28125
1695730147865,0.004638672,-1.0095825,0.1630249,-3.921875,-3.25,-0.765625
1695730147909,-0.028076172,-0.9783325,0.1408081,-4.546875,-1.703125,-1.109375
1695730147941,-0.020507812,-1.0247192,0.15594482,-8.515625,-1.046875,-2.953125
1695730147999,0.009033203,-1.0276489,0.2008667,-4.515625,6.59375,0.546875
1695730148014,-0.013427734,-0.99298096,0.18231201,2.84375,3.453125,-1.046875
1695730148059,-0.01953125,-0.9788208,0.16888428,2.125,3.84375,-0.171875
1695730148103,0.025634766,-1.0005493,0.18963623,2.0,1.609375,2.734375
1695730148132,0.001953125,-1.0154419,0.18304443,-1.734375,-0.671875,0.03125
1695730148179,-0.014160156,-0.98931885,0.15667725,-1.09375,3.015625,0.640625
1695730148225,0.059326172,-1.0064087,0.199646,4.328125,4.390625,1.796875
1695730148257,0.040283203,-1.0061646,0.13543701,-0.875,3.390625,2.453125
1695730148299,-0.0061035156,-0.9985962,0.15252686,5.953125,0.421875,1.640625
1695730148329,0.025878906,-1.0112915,0.17303467,-1.46875,0.21875,-0.953125
1695730148374,0.04296875,-0.9973755,0.1630249,-2.546875,1.90625,0.546875
1695730148419,0.016357422,-1.0093384,0.16278076,1.359375,-3.671875,-0.296875
1695730148450,4.8828125E-4,-0.99713135,0.1515503,-6.96875,0.078125,-0.453125
1695730148494,0.0068359375,-1.0010376,0.17034912,0.5,-1.078125,0.640625
1695730148538,0.01928711,-1.0076294,0.16766357,-2.546875,0.578125,-0.28125
1695730148571,0.015136719,-0.99786377,0.17279053,-4.265625,-1.59375,-0.390625
