# Sensor type: Thingy
# Activity type: Sitting
# Activity subtype: Normal
# Subject id: s1862623
# Notes: test1
timestamp,accel_x,accel_y,accel_z,gyro_x,gyro_y,gyro_z,mag_x,mag_y,mag_z
1695726234786,-0.15332031,0.15136719,0.9238281,-0.125,-0.03125,-0.21875,0.0,0.0,0.0
1695726234826,-0.15625,0.15136719,0.9423828,-0.125,-0.03125,-0.40625,0.0,0.0,0.0
1695726234846,-0.15625,0.14453125,0.93359375,-0.0625,0.03125,-0.34375,0.0,0.0,0.0
1695726234886,-0.15722656,0.14257812,0.94921875,0.0,0.15625,-0.53125,0.0,0.0,0.0
1695726234926,-0.16210938,0.14355469,0.92871094,0.0625,0.15625,-0.46875,0.0,0.0,0.0
1695726234966,-0.15820312,0.14550781,0.94628906,-0.125,-0.03125,-0.53125,-45.4375,-14.9375,-89.0
1695726235007,-0.16796875,0.14453125,0.93652344,-0.1875,0.03125,-0.40625,0.0,0.0,0.0
1695726235047,-0.15820312,0.15527344,0.9375,0.125,-0.03125,-0.46875,0.0,0.0,0.0
1695726235106,-0.16210938,0.14550781,0.9169922,0.0,0.09375,-0.46875,0.0,0.0,0.0
1695726235127,-0.15917969,0.15234375,0.93652344,-0.25,-0.03125,-0.46875,0.0,0.0,0.0
1695726235167,-0.14941406,0.14648438,0.9316406,-0.59375,0.15625,-0.46875,0.0,0.0,0.0
1695726235206,-0.16503906,0.140625,0.9248047,0.0,0.21875,-0.28125,0.0,0.0,0.0
1695726235247,-0.15820312,0.13671875,0.93847656,0.0,-0.03125,-0.34375,0.0,0.0,0.0
1695726235286,-0.15820312,0.14648438,0.9423828,0.125,-0.21875,-0.40625,0.0,0.0,0.0
1695726235327,-0.16308594,0.13378906,0.9404297,-0.1875,-0.03125,-0.46875,0.0,0.0,0.0
1695726235367,-0.15625,0.14257812,0.9277344,-0.375,-0.03125,-0.46875,0.0,0.0,0.0
1695726235407,-0.16210938,0.14257812,0.95214844,0.0625,-0.03125,-0.65625,0.0,0.0,0.0
1695726235446,-0.16894531,0.13671875,0.93652344,-0.0625,0.03125,-0.28125,0.0,0.0,0.0
1695726235487,-0.15625,0.1484375,0.9267578,-0.125,0.15625,-0.34375,-45.3125,-14.375,-89.125
1695726235528,-0.16113281,0.14550781,0.94628906,0.125,-0.21875,-0.40625,0.0,0.0,0.0
1695726235587,-0.1640625,0.13769531,0.92871094,-0.1875,-0.28125,-0.34375,0.0,0.0,0.0
1695726235607,-0.15722656,0.13964844,0.9511719,-0.125,-0.28125,-0.28125,0.0,0.0,0.0
1695726235647,-0.15332031,0.1328125,0.9394531,0.1875,-0.15625,-0.34375,0.0,0.0,0.0
1695726235688,-0.15527344,0.14355469,0.92871094,0.3125,-0.03125,-0.46875,0.0,0.0,0.0
1695726235727,-0.16015625,0.14453125,0.93652344,-0.0625,0.03125,-0.40625,0.0,0.0,0.0
1695726235767,-0.15722656,0.14257812,0.9423828,-0.125,-0.15625,-0.59375,0.0,0.0,0.0
1695726235808,-0.15820312,0.14453125,0.9423828,0.125,-0.03125,-0.53125,0.0,0.0,0.0
1695726235847,-0.15332031,0.13964844,0.94140625,0.1875,-0.21875,-0.53125,0.0,0.0,0.0
1695726235888,-0.15722656,0.140625,0.9296875,0.0625,-0.03125,-0.46875,0.0,0.0,0.0
1695726235928,-0.15332031,0.14746094,0.9296875,0.0625,-0.15625,-0.34375,0.0,0.0,0.0
1695726235969,-0.15722656,0.13183594,0.94433594,0.1875,0.09375,-0.46875,-45.0,-14.0625,-89.125
1695726236008,-0.15820312,0.13476562,0.92578125,-0.53125,0.15625,-0.40625,0.0,0.0,0.0
1695726236050,-0.15136719,0.14355469,0.9423828,0.0,0.40625,-0.34375,0.0,0.0,0.0
1695726236087,-0.15917969,0.13671875,0.93847656,0.625,-0.34375,-0.53125,0.0,0.0,0.0
1695726236129,-0.15722656,0.13867188,0.94140625,0.0625,-0.03125,-0.40625,0.0,0.0,0.0
1695726236187,-0.1640625,0.14160156,0.94433594,-0.0625,-0.15625,-0.59375,0.0,0.0,0.0
1695726236208,-0.15722656,0.14746094,0.9472656,0.625,-0.15625,-0.65625,0.0,0.0,0.0
1695726236247,-0.15820312,0.1484375,0.9404297,0.4375,0.03125,-0.65625,0.0,0.0,0.0
1695726236288,-0.15234375,0.13867188,0.92871094,-0.0625,0.03125,-0.34375,0.0,0.0,0.0
1695726236348,-0.15234375,0.14257812,0.9453125,0.375,0.09375,-0.40625,0.0,0.0,0.0
1695726236367,-0.16210938,0.14257812,0.9423828,0.4375,-0.03125,-0.40625,0.0,0.0,0.0
1695726236408,-0.15722656,0.13964844,0.92578125,0.0,-0.21875,-0.40625,0.0,0.0,0.0
1695726236447,-0.16015625,0.13867188,0.9404297,0.4375,0.09375,-0.40625,0.0,0.0,0.0
1695726236487,-0.1640625,0.13085938,0.9394531,0.25,0.03125,-0.53125,-44.375,-14.1875,-88.375
1695726236529,-0.15332031,0.13476562,0.9394531,0.4375,0.09375,-0.46875,0.0,0.0,0.0
1695726236569,-0.15820312,0.13867188,0.93359375,0.3125,0.21875,-0.34375,0.0,0.0,0.0
1695726236607,-0.15625,0.13476562,0.9326172,0.5625,0.21875,-0.53125,0.0,0.0,0.0
1695726236649,-0.16113281,0.14355469,0.9404297,0.6875,0.09375,-0.46875,0.0,0.0,0.0
1695726236689,-0.15625,0.14648438,0.9316406,0.625,-0.03125,-0.65625,0.0,0.0,0.0
1695726236728,-0.15136719,0.15625,0.94140625,0.5625,0.15625,-0.53125,0.0,0.0,0.0
1695726236787,-0.1640625,0.13769531,0.9453125,0.6875,0.28125,-0.40625,0.0,0.0,0.0
1695726236806,-0.16015625,0.14550781,0.9394531,0.125,0.03125,-0.21875,0.0,0.0,0.0
1695726236847,-0.16601562,0.13769531,0.9423828,0.0,0.40625,-0.15625,0.0,0.0,0.0
1695726236888,-0.15332031,0.14453125,0.93847656,0.0,0.21875,-0.40625,0.0,0.0,0.0
1695726236926,-0.15722656,0.1484375,0.9550781,0.84375,0.15625,-0.46875,0.0,0.0,0.0
1695726236967,-0.15136719,0.14648438,0.9501953,0.6875,-0.21875,-0.46875,-45.625,-14.375,-89.125
1695726237007,-0.15917969,0.13183594,0.9433594,0.4375,0.21875,-0.40625,0.0,0.0,0.0
1695726237050,-0.16113281,0.13964844,0.9394531,0.1875,-0.09375,-0.53125,0.0,0.0,0.0
1695726237106,-0.15820312,0.14453125,0.92578125,0.625,-0.21875,-0.78125,0.0,0.0,0.0
1695726237129,-0.16601562,0.15136719,0.9404297,0.5625,0.28125,-0.53125,0.0,0.0,0.0
1695726237166,-0.15722656,0.14453125,0.9238281,0.375,-0.21875,-0.34375,0.0,0.0,0.0
1695726237210,-0.15917969,0.14257812,0.94433594,0.125,0.21875,-0.40625,0.0,0.0,0.0
1695726237250,-0.15332031,0.13769531,0.94140625,0.0625,-0.09375,-0.34375,0.0,0.0,0.0
1695726237286,-0.16015625,0.140625,0.9326172,0.125,-0.03125,-0.40625,0.0,0.0,0.0
1695726237330,-0.15136719,0.13964844,0.93359375,0.375,0.03125,-0.46875,0.0,0.0,0.0
1695726237370,-0.16210938,0.14453125,0.94140625,0.0,0.09375,-0.28125,0.0,0.0,0.0
1695726237428,-0.15429688,0.14453125,0.93066406,0.1875,0.28125,-0.46875,0.0,0.0,0.0
1695726237448,-0.15136719,0.14746094,0.9267578,0.1875,0.34375,-0.46875,0.0,0.0,0.0
1695726237488,-0.15625,0.14453125,0.93847656,0.125,0.03125,-0.46875,-44.375,-13.9375,-88.375
1695726237528,-0.15820312,0.15234375,0.9355469,0.0625,0.21875,-0.46875,0.0,0.0,0.0
1695726237568,-0.16699219,0.14550781,0.9423828,-0.0625,-0.03125,-0.40625,0.0,0.0,0.0
1695726237608,-0.15625,0.14550781,0.9511719,0.3125,-0.03125,-0.53125,0.0,0.0,0.0
1695726237648,-0.15625,0.13964844,0.9394531,-0.0625,-0.03125,-0.34375,0.0,0.0,0.0
1695726237688,-0.1640625,0.14453125,0.9345703,-0.0625,0.21875,-0.28125,0.0,0.0,0.0
1695726237727,-0.16601562,0.140625,0.9472656,-0.25,0.28125,-0.40625,0.0,0.0,0.0
1695726237769,-0.16113281,0.13964844,0.9375,-0.5,0.21875,-0.40625,0.0,0.0,0.0
1695726237807,-0.16015625,0.140625,0.9423828,0.1875,0.03125,-0.34375,0.0,0.0,0.0
1695726237869,-0.16113281,0.13574219,0.9277344,0.25,0.15625,-0.46875,0.0,0.0,0.0
1695726237887,-0.16796875,0.14160156,0.9267578,0.25,-0.09375,-0.59375,0.0,0.0,0.0
1695726237928,-0.1640625,0.15136719,0.93847656,-0.0625,-0.21875,-0.65625,0.0,0.0,0.0
1695726237968,-0.16894531,0.1484375,0.92578125,-0.375,-0.03125,-0.46875,-45.625,-13.75,-87.1875
1695726238008,-0.16796875,0.140625,0.9453125,0.125,-0.03125,-0.40625,0.0,0.0,0.0
1695726238048,-0.16210938,0.140625,0.9316406,0.0625,-0.28125,-0.34375,0.0,0.0,0.0
1695726238089,-0.16113281,0.13769531,0.93652344,-0.25,0.09375,-0.15625,0.0,0.0,0.0
1695726238127,-0.16015625,0.1328125,0.9345703,0.125,-0.28125,-0.34375,0.0,0.0,0.0
1695726238167,-0.16992188,0.13867188,0.9277344,0.0,-0.15625,-0.46875,0.0,0.0,0.0
1695726238207,-0.15722656,0.14160156,0.9345703,0.1875,-0.40625,-0.59375,0.0,0.0,0.0
1695726238248,-0.16308594,0.13867188,0.9326172,0.0,0.15625,-0.34375,0.0,0.0,0.0
1695726238288,-0.16699219,0.13769531,0.9404297,0.0625,0.28125,-0.21875,0.0,0.0,0.0
1695726238327,-0.16308594,0.13964844,0.92871094,0.5625,-0.09375,-0.59375,0.0,0.0,0.0
1695726238367,-0.14941406,0.13476562,0.93066406,0.0,-0.03125,-0.53125,0.0,0.0,0.0
1695726238407,-0.15625,0.13769531,0.93847656,0.0625,0.15625,-0.53125,0.0,0.0,0.0
1695726238448,-0.16308594,0.14746094,0.9326172,0.375,-0.21875,-0.53125,0.0,0.0,0.0
1695726238486,-0.15429688,0.13671875,0.9404297,0.0625,-0.15625,-0.40625,-42.75,-14.375,-88.25
1695726238528,-0.15429688,0.13183594,0.93359375,-0.1875,0.15625,-0.15625,0.0,0.0,0.0
1695726238568,-0.15917969,0.14257812,0.94628906,0.4375,0.21875,-0.28125,0.0,0.0,0.0
1695726238628,-0.1640625,0.13769531,0.9404297,0.75,-0.15625,-0.34375,0.0,0.0,0.0
1695726238649,-0.16015625,0.13671875,0.9345703,-0.3125,-0.34375,-0.40625,0.0,0.0,0.0
1695726238686,-0.15820312,0.13378906,0.93652344,0.0625,0.28125,-0.34375,0.0,0.0,0.0
1695726238729,-0.15820312,0.1328125,0.9394531,0.25,-0.28125,-0.53125,0.0,0.0,0.0
1695726238768,-0.16308594,0.14257812,0.9248047,0.3125,0.09375,-0.46875,0.0,0.0,0.0
1695726238808,-0.16308594,0.14355469,0.9453125,0.5,-0.15625,-0.40625,0.0,0.0,0.0
1695726238848,-0.15917969,0.13378906,0.9345703,0.1875,-0.03125,-0.53125,0.0,0.0,0.0
1695726238888,-0.16015625,0.13964844,0.94433594,-0.1875,-0.15625,-0.59375,0.0,0.0,0.0
1695726238934,-0.15820312,0.140625,0.9355469,0.0,-0.09375,-0.46875,0.0,0.0,0.0
1695726238967,-0.16015625,0.14453125,0.93847656,0.375,0.03125,-0.59375,-43.8125,-15.125,-87.8125
1695726239008,-0.15917969,0.14355469,0.92285156,0.25,-0.28125,-0.53125,0.0,0.0,0.0
1695726239048,-0.15820312,0.13671875,0.9326172,0.125,-0.03125,-0.28125,0.0,0.0,0.0
1695726239088,-0.15820312,0.13574219,0.9355469,0.1875,-0.21875,-0.40625,0.0,0.0,0.0
1695726239128,-0.15234375,0.14355469,0.93847656,0.0625,-0.21875,-0.46875,0.0,0.0,0.0
1695726239168,-0.15820312,0.13769531,0.9375,0.4375,-0.09375,-0.46875,0.0,0.0,0.0
1695726239207,-0.15917969,0.13964844,0.93652344,0.1875,0.09375,-0.46875,0.0,0.0,0.0
1695726239250,-0.15527344,0.140625,0.9404297,0.1875,-0.03125,-0.34375,0.0,0.0,0.0
1695726239296,-0.15332031,0.14355469,0.953125,0.125,0.03125,-0.53125,0.0,0.0,0.0
1695726239327,-0.15917969,0.13378906,0.9326172,0.1875,-0.03125,-0.59375,0.0,0.0,0.0
1695726239410,-0.15722656,0.14648438,0.9394531,0.25,-0.09375,-0.46875,0.0,0.0,0.0
1695726239415,-0.15820312,0.13769531,0.92578125,0.3125,0.09375,-0.59375,0.0,0.0,0.0
1695726239447,-0.15234375,0.1484375,0.9433594,0.3125,-0.09375,-0.46875,0.0,0.0,0.0
1695726239487,-0.15917969,0.13476562,0.92871094,0.1875,0.09375,-0.34375,-44.125,-15.6875,-87.375
1695726239530,-0.15917969,0.13574219,0.92871094,0.25,0.21875,-0.28125,0.0,0.0,0.0
1695726239587,-0.15917969,0.13671875,0.9375,0.375,0.09375,-0.40625,0.0,0.0,0.0
1695726239609,-0.15332031,0.14746094,0.93847656,0.4375,0.03125,-0.46875,0.0,0.0,0.0
1695726239650,-0.16308594,0.13671875,0.9355469,0.25,0.15625,-0.40625,0.0,0.0,0.0
1695726239687,-0.15917969,0.14257812,0.9316406,0.25,0.03125,-0.46875,0.0,0.0,0.0
1695726239727,-0.15722656,0.13671875,0.9375,0.1875,0.15625,-0.53125,0.0,0.0,0.0
1695726239768,-0.16015625,0.140625,0.9248047,-0.0625,0.5625,-0.53125,0.0,0.0,0.0
1695726239812,-0.15917969,0.13964844,0.953125,0.1875,0.03125,-0.34375,0.0,0.0,0.0
1695726239847,-0.15722656,0.14257812,0.9316406,0.75,-0.15625,-0.65625,0.0,0.0,0.0
1695726239887,-0.15625,0.13671875,0.93652344,0.4375,-0.21875,-0.46875,0.0,0.0,0.0
1695726239928,-0.15917969,0.13476562,0.9355469,0.0,-0.09375,-0.46875,0.0,0.0,0.0
1695726239971,-0.15917969,0.13964844,0.9248047,0.3125,-0.21875,-0.46875,-46.0625,-14.8125,-88.5625
1695726240014,-0.16308594,0.1484375,0.921875,0.5625,-0.28125,-0.40625,0.0,0.0,0.0
1695726240046,-0.15136719,0.14453125,0.9482422,0.5625,0.15625,-0.53125,0.0,0.0,0.0
1695726240091,-0.16015625,0.12109375,0.93359375,0.0,-0.28125,-0.40625,0.0,0.0,0.0
1695726240147,-0.15429688,0.13476562,0.94140625,-0.125,0.03125,0.03125,0.0,0.0,0.0
1695726240167,-0.15722656,0.140625,0.9267578,-0.4375,0.03125,0.09375,0.0,0.0,0.0
1695726240207,-0.14941406,0.14355469,0.9326172,0.0625,0.03125,0.03125,0.0,0.0,0.0
1695726240248,-0.16308594,0.14257812,0.93652344,0.3125,0.09375,-0.1875,0.0,0.0,0.0
1695726240287,-0.16113281,0.13671875,0.93066406,-0.25,0.15625,0.09375,0.0,0.0,0.0
1695726240327,-0.15039062,0.13085938,0.9345703,-0.0625,0.53125,0.03125,0.0,0.0,0.0
1695726240366,-0.15332031,0.13574219,0.9394531,0.3125,0.15625,0.03125,0.0,0.0,0.0
1695726240409,-0.16113281,0.14355469,0.9355469,0.0,0.21875,0.03125,0.0,0.0,0.0
1695726240448,-0.15722656,0.14160156,0.94140625,0.0625,0.34375,0.15625,0.0,0.0,0.0
1695726240488,-0.16113281,0.13574219,0.9375,-0.0625,0.21875,0.09375,-44.125,-13.1875,-88.375
1695726240527,-0.1640625,0.13574219,0.94628906,-0.25,0.21875,0.03125,0.0,0.0,0.0
1695726240568,-0.16015625,0.13964844,0.9296875,-0.1875,0.34375,0.03125,0.0,0.0,0.0
1695726240608,-0.16113281,0.13476562,0.9326172,-0.1875,0.46875,-0.03125,0.0,0.0,0.0
1695726240648,-0.15722656,0.14648438,0.94433594,-0.0625,0.09375,-0.15625,0.0,0.0,0.0
1695726240689,-0.15722656,0.14257812,0.9345703,-0.1875,0.15625,-0.15625,0.0,0.0,0.0
1695726240728,-0.16308594,0.13476562,0.9423828,-0.5,0.15625,0.03125,0.0,0.0,0.0
1695726240767,-0.16210938,0.13476562,0.9345703,-0.4375,0.03125,-0.03125,0.0,0.0,0.0
1695726240808,-0.16113281,0.13964844,0.9248047,-0.625,0.03125,-0.03125,0.0,0.0,0.0
1695726240847,-0.16015625,0.13671875,0.93066406,-0.3125,0.15625,0.03125,0.0,0.0,0.0
1695726240908,-0.15722656,0.13476562,0.93652344,-0.3125,-0.15625,-0.15625,0.0,0.0,0.0
1695726240927,-0.15917969,0.14257812,0.9423828,-0.375,-0.15625,-0.03125,0.0,0.0,0.0
1695726240968,-0.16210938,0.13964844,0.9326172,-0.375,-0.15625,-0.15625,-45.3125,-14.0625,-88.5625
1695726241008,-0.16503906,0.13964844,0.93652344,-0.3125,-0.03125,-0.15625,0.0,0.0,0.0
1695726241048,-0.16210938,0.13964844,0.9355469,0.125,-0.09375,-0.09375,0.0,0.0,0.0
1695726241088,-0.15722656,0.14355469,0.9248047,-0.6875,0.03125,0.09375,0.0,0.0,0.0
1695726241127,-0.16796875,0.13183594,0.94628906,-0.25,0.09375,0.15625,0.0,0.0,0.0
1695726241168,-0.15820312,0.13671875,0.93066406,0.125,-0.21875,0.09375,0.0,0.0,0.0
1695726241208,-0.16308594,0.13574219,0.9482422,-0.3125,-0.09375,0.09375,0.0,0.0,0.0
1695726241248,-0.1640625,0.140625,0.9375,-0.5,-0.15625,-0.09375,0.0,0.0,0.0
1695726241290,-0.15820312,0.1328125,0.9375,-0.90625,-0.03125,0.53125,0.0,0.0,0.0
1695726241328,-0.15722656,0.14257812,0.9423828,-0.1875,-0.09375,0.46875,0.0,0.0,0.0
1695726241387,-0.15625,0.13183594,0.93652344,0.1875,0.03125,0.46875,0.0,0.0,0.0
1695726241414,-0.15332031,0.13476562,0.9316406,-0.3125,0.03125,0.53125,0.0,0.0,0.0
1695726241448,-0.16015625,0.140625,0.93847656,-0.3125,0.03125,0.46875,0.0,0.0,0.0
1695726241491,-0.15234375,0.14355469,0.9404297,-0.25,-0.03125,0.40625,-43.8125,-15.875,-88.875
1695726241534,-0.16113281,0.13378906,0.9316406,-0.375,-0.03125,0.53125,0.0,0.0,0.0
1695726241568,-0.16113281,0.13671875,0.93066406,-0.0625,0.03125,0.40625,0.0,0.0,0.0
1695726241609,-0.15820312,0.140625,0.9433594,-0.3125,0.03125,0.46875,0.0,0.0,0.0
1695726241668,-0.1640625,0.13671875,0.92871094,-0.5,-0.03125,0.40625,0.0,0.0,0.0
1695726241688,-0.16015625,0.13769531,0.9433594,-0.0625,0.15625,0.40625,0.0,0.0,0.0
1695726241728,-0.16113281,0.13671875,0.94433594,-0.25,0.03125,0.53125,0.0,0.0,0.0
1695726241770,-0.16308594,0.13769531,0.9316406,-0.5625,0.09375,0.46875,0.0,0.0,0.0
1695726241809,-0.16601562,0.1328125,0.9404297,-0.84375,0.34375,0.46875,0.0,0.0,0.0
1695726241856,-0.15429688,0.13964844,0.9501953,-0.625,-0.09375,0.59375,0.0,0.0,0.0
1695726241887,-0.16210938,0.12890625,0.9404297,-0.6875,0.09375,0.34375,0.0,0.0,0.0
1695726241927,-0.16796875,0.12890625,0.9453125,-0.4375,-0.4375,0.40625,0.0,0.0,0.0
1695726241968,-0.1640625,0.140625,0.93847656,-0.75,-0.09375,0.59375,-45.125,-16.4375,-88.375
1695726242007,-0.15820312,0.13671875,0.9326172,-0.4375,-0.09375,0.34375,0.0,0.0,0.0
1695726242048,-0.15917969,0.12792969,0.9375,-0.4375,-0.34375,0.34375,0.0,0.0,0.0
1695726242089,-0.16699219,0.13476562,0.92285156,-0.3125,-0.03125,0.28125,0.0,0.0,0.0
1695726242129,-0.16210938,0.12792969,0.9482422,-0.3125,-0.15625,0.40625,0.0,0.0,0.0
1695726242168,-0.15722656,0.13867188,0.9375,-0.4375,-0.15625,0.40625,0.0,0.0,0.0
1695726242207,-0.16015625,0.12695312,0.9501953,-0.3125,-0.15625,0.34375,0.0,0.0,0.0
1695726242251,-0.16308594,0.12988281,0.9345703,-0.75,0.09375,0.40625,0.0,0.0,0.0
1695726242287,-0.15722656,0.13574219,0.92871094,-0.125,0.15625,0.40625,0.0,0.0,0.0
1695726242334,-0.1640625,0.12890625,0.94140625,-0.1875,0.09375,0.46875,0.0,0.0,0.0
1695726242368,-0.16601562,0.13085938,0.9453125,-0.25,0.34375,0.65625,0.0,0.0,0.0
1695726242427,-0.16015625,0.13183594,0.9394531,0.1875,0.34375,0.59375,0.0,0.0,0.0
1695726242447,-0.16503906,0.13183594,0.93359375,-0.125,0.09375,0.34375,0.0,0.0,0.0
1695726242488,-0.16601562,0.12695312,0.93847656,-0.1875,0.09375,0.34375,-45.125,-14.9375,-89.0
1695726242535,-0.16308594,0.12792969,0.9355469,0.1875,0.28125,0.40625,0.0,0.0,0.0
1695726242567,-0.16601562,0.13085938,0.9316406,0.0625,0.03125,0.34375,0.0,0.0,0.0
1695726242606,-0.16308594,0.13476562,0.9404297,0.3125,0.28125,0.59375,0.0,0.0,0.0
1695726242646,-0.15625,0.13378906,0.9326172,0.3125,0.28125,0.46875,0.0,0.0,0.0
1695726242687,-0.15234375,0.13867188,0.9433594,-0.0625,0.21875,0.40625,0.0,0.0,0.0
1695726242728,-0.1640625,0.12597656,0.9375,-0.25,0.09375,0.40625,0.0,0.0,0.0
1695726242787,-0.15917969,0.13476562,0.9345703,-0.0625,0.34375,0.46875,0.0,0.0,0.0
1695726242831,-0.16308594,0.13183594,0.9267578,-0.125,0.28125,0.71875,0.0,0.0,0.0
1695726242849,-0.1640625,0.13964844,0.93847656,-0.0625,0.09375,0.40625,0.0,0.0,0.0
1695726242887,-0.16308594,0.13085938,0.94921875,0.0625,0.28125,0.40625,0.0,0.0,0.0
1695726242927,-0.17285156,0.12988281,0.93359375,-0.625,0.46875,0.46875,0.0,0.0,0.0
1695726242968,-0.16796875,0.1328125,0.9316406,0.125,0.28125,0.46875,-45.875,-15.25,-89.0
1695726243007,-0.16308594,0.13769531,0.93847656,0.125,-0.09375,0.28125,0.0,0.0,0.0
1695726243046,-0.15917969,0.13183594,0.94140625,-0.125,0.28125,0.53125,0.0,0.0,0.0
1695726243086,-0.16113281,0.1328125,0.9472656,0.0,0.09375,0.15625,0.0,0.0,0.0
1695726243127,-0.16796875,0.13574219,0.93066406,0.0,0.03125,0.28125,0.0,0.0,0.0
1695726243187,-0.15429688,0.12890625,0.9404297,0.1875,0.21875,0.34375,0.0,0.0,0.0
1695726243207,-0.1640625,0.13476562,0.9326172,-0.25,0.28125,0.46875,0.0,0.0,0.0
1695726243248,-0.16992188,0.12597656,0.94140625,-0.25,0.09375,0.59375,0.0,0.0,0.0
1695726243288,-0.15625,0.13476562,0.9433594,-0.125,0.21875,0.53125,0.0,0.0,0.0
1695726243328,-0.15917969,0.13378906,0.9326172,-0.375,0.09375,0.53125,0.0,0.0,0.0
1695726243368,-0.16894531,0.12890625,0.9296875,-0.25,0.15625,0.28125,0.0,0.0,0.0
1695726243406,-0.17578125,0.13378906,0.9345703,-0.0625,0.40625,0.34375,0.0,0.0,0.0
1695726243450,-0.15625,0.13476562,0.9472656,0.0625,0.34375,0.40625,0.0,0.0,0.0
1695726243487,-0.17089844,0.14160156,0.92871094,-0.1875,0.40625,0.34375,-44.5625,-14.8125,-89.875
1695726243528,-0.17089844,0.12988281,0.9267578,-0.375,0.09375,0.46875,0.0,0.0,0.0
1695726243568,-0.16015625,0.13867188,0.93359375,-0.25,0.34375,0.40625,0.0,0.0,0.0
1695726243628,-0.16601562,0.14453125,0.9267578,-0.25,0.03125,0.40625,0.0,0.0,0.0
1695726243647,-0.15917969,0.13085938,0.9316406,-0.3125,-0.09375,0.46875,0.0,0.0,0.0
1695726243688,-0.1640625,0.13574219,0.9316406,-0.5625,0.03125,0.46875,0.0,0.0,0.0
1695726243728,-0.1640625,0.13085938,0.93847656,-0.4375,-0.03125,0.53125,0.0,0.0,0.0
1695726243767,-0.15722656,0.14257812,0.9326172,-0.375,0.15625,0.46875,0.0,0.0,0.0
1695726243806,-0.15820312,0.13671875,0.9277344,-0.125,0.09375,0.21875,0.0,0.0,0.0
1695726243869,-0.16015625,0.13378906,0.94140625,-0.25,0.03125,0.40625,0.0,0.0,0.0
1695726243890,-0.16796875,0.13769531,0.9375,-0.6875,0.09375,0.40625,0.0,0.0,0.0
1695726243947,-0.16308594,0.13378906,0.94628906,-0.4375,-0.03125,0.53125,0.0,0.0,0.0
1695726243967,-0.15917969,0.1328125,0.94433594,-0.5625,0.03125,0.28125,-45.125,-13.4375,-89.0
1695726244009,-0.16210938,0.12792969,0.9404297,-0.125,-0.09375,0.65625,0.0,0.0,0.0
1695726244051,-0.16113281,0.12597656,0.93847656,-0.0625,0.03125,0.53125,0.0,0.0,0.0
1695726244088,-0.16894531,0.12695312,0.9316406,-0.5625,-0.21875,0.59375,0.0,0.0,0.0
1695726244128,-0.15820312,0.13769531,0.9267578,-0.5625,-0.09375,0.28125,0.0,0.0,0.0
1695726244168,-0.16503906,0.13378906,0.9355469,-0.5625,-0.09375,0.28125,0.0,0.0,0.0
1695726244209,-0.16113281,0.13964844,0.9355469,-0.3125,-0.15625,0.40625,0.0,0.0,0.0
1695726244248,-0.16015625,0.13085938,0.93652344,-0.3125,-0.03125,0.40625,0.0,0.0,0.0
1695726244288,-0.16210938,0.13671875,0.93652344,-0.3125,0.21875,0.53125,0.0,0.0,0.0
1695726244331,-0.1640625,0.13867188,0.9375,-0.3125,-0.15625,0.46875,0.0,0.0,0.0
1695726244369,-0.15820312,0.12988281,0.93066406,-0.6875,-0.15625,0.46875,0.0,0.0,0.0
1695726244408,-0.16015625,0.12402344,0.9375,-0.6875,0.03125,0.34375,0.0,0.0,0.0
1695726244448,-0.16503906,0.12890625,0.9472656,-0.6875,-0.6875,0.65625,0.0,0.0,0.0
1695726244486,-0.16113281,0.12988281,0.9326172,-0.5,0.09375,0.65625,-44.6875,-14.6875,-89.4375
1695726244531,-0.16601562,0.13183594,0.93847656,-0.625,0.40625,0.34375,0.0,0.0,0.0
1695726244569,-0.15527344,0.125,0.9472656,-0.4375,0.34375,0.53125,0.0,0.0,0.0
1695726244608,-0.15820312,0.13378906,0.9394531,-0.25,0.34375,0.21875,0.0,0.0,0.0
1695726244649,-0.17480469,0.13476562,0.93359375,-0.125,0.15625,0.46875,0.0,0.0,0.0
1695726244707,-0.16015625,0.12402344,0.9433594,-0.5,0.09375,0.53125,0.0,0.0,0.0
1695726244727,-0.15917969,0.12402344,0.92089844,0.3125,0.03125,0.34375,0.0,0.0,0.0
1695726244788,-0.16308594,0.13378906,0.9375,-0.4375,-0.09375,0.46875,0.0,0.0,0.0
1695726244809,-0.16210938,0.12207031,0.9296875,-0.625,0.21875,0.53125,0.0,0.0,0.0
1695726244850,-0.15332031,0.12695312,0.9404297,0.1875,-0.09375,0.40625,0.0,0.0,0.0
1695726244887,-0.16503906,0.12792969,0.9375,0.1875,0.09375,0.46875,0.0,0.0,0.0
1695726244934,-0.15820312,0.14257812,0.9453125,-0.1875,0.09375,0.40625,0.0,0.0,0.0
1695726244968,-0.16601562,0.13476562,0.9501953,-0.25,0.40625,0.21875,-45.0,-14.8125,-88.25
1695726245013,-0.1640625,0.13183594,0.9433594,-0.25,0.34375,0.40625,0.0,0.0,0.0
1695726245046,-0.16308594,0.12988281,0.9404297,-0.0625,0.09375,0.46875,0.0,0.0,0.0
1695726245087,-0.16015625,0.13378906,0.9482422,0.1875,-0.09375,0.46875,0.0,0.0,0.0
1695726245128,-0.16113281,0.12988281,0.9326172,0.125,-0.09375,0.28125,0.0,0.0,0.0
1695726245168,-0.16210938,0.13183594,0.93847656,-0.125,-0.28125,0.21875,0.0,0.0,0.0
1695726245209,-0.17089844,0.13183594,0.9482422,-0.3125,-0.4375,0.21875,0.0,0.0,0.0
1695726245248,-0.16015625,0.13183594,0.9267578,-0.1875,0.03125,0.28125,0.0,0.0,0.0
1695726245288,-0.15917969,0.13183594,0.9501953,-0.75,-0.03125,0.59375,0.0,0.0,0.0
1695726245328,-0.15820312,0.12792969,0.9326172,-0.5,-0.15625,0.53125,0.0,0.0,0.0
1695726245368,-0.15429688,0.12597656,0.9482422,-0.0625,-0.34375,0.40625,0.0,0.0,0.0
1695726245407,-0.17089844,0.13476562,0.93066406,-0.125,0.03125,0.34375,0.0,0.0,0.0
1695726245471,-0.15917969,0.12988281,0.9394531,-0.1875,0.28125,0.46875,0.0,0.0,0.0
1695726245487,-0.15917969,0.12695312,0.94628906,-0.375,0.09375,0.40625,-44.6875,-15.25,-88.375
1695726245527,-0.16992188,0.13183594,0.94140625,-0.375,0.28125,0.46875,0.0,0.0,0.0
1695726245567,-0.15917969,0.12988281,0.9423828,-0.25,0.28125,0.46875,0.0,0.0,0.0
1695726245606,-0.1640625,0.13378906,0.9326172,-0.25,0.03125,0.46875,0.0,0.0,0.0
1695726245648,-0.16308594,0.12402344,0.9404297,-0.125,0.03125,0.46875,0.0,0.0,0.0
1695726245687,-0.16796875,0.13378906,0.93652344,-0.1875,0.03125,0.28125,0.0,0.0,0.0
1695726245728,-0.15917969,0.13476562,0.9326172,-0.3125,0.03125,0.40625,0.0,0.0,0.0
1695726245768,-0.1640625,0.1171875,0.9550781,-0.25,0.34375,0.53125,0.0,0.0,0.0
1695726245809,-0.16308594,0.12988281,0.93847656,0.125,0.15625,0.46875,0.0,0.0,0.0
1695726245848,-0.1640625,0.13183594,0.93652344,0.25,0.09375,0.40625,0.0,0.0,0.0
1695726245887,-0.15722656,0.13476562,0.93066406,0.0,0.09375,0.40625,0.0,0.0,0.0
1695726245928,-0.16113281,0.12695312,0.93847656,-0.125,0.09375,0.40625,0.0,0.0,0.0
1695726245968,-0.16601562,0.12988281,0.9267578,0.25,0.09375,0.40625,-43.8125,-15.875,-87.8125
1695726246009,-0.1640625,0.12988281,0.9375,-0.125,-0.03125,0.53125,0.0,0.0,0.0
1695726246048,-0.15429688,0.13085938,0.9248047,-0.25,0.28125,0.40625,0.0,0.0,0.0
1695726246088,-0.15625,0.13085938,0.9316406,-0.375,-0.15625,0.40625,0.0,0.0,0.0
1695726246126,-0.15820312,0.13574219,0.9472656,0.0625,0.15625,0.40625,0.0,0.0,0.0
1695726246168,-0.15429688,0.12597656,0.93066406,0.25,-0.375,0.40625,0.0,0.0,0.0
1695726246249,-0.16210938,0.13574219,0.94628906,-0.25,0.21875,0.34375,0.0,0.0,0.0
1695726246251,-0.15917969,0.13476562,0.9248047,0.0625,-0.09375,0.34375,0.0,0.0,0.0
1695726246286,-0.16601562,0.13183594,0.9423828,-0.125,0.09375,0.28125,0.0,0.0,0.0
1695726246326,-0.15917969,0.13671875,0.9345703,0.25,0.40625,0.40625,0.0,0.0,0.0
1695726246368,-0.171875,0.13085938,0.9326172,-0.4375,0.15625,0.65625,0.0,0.0,0.0
1695726246409,-0.16210938,0.13769531,0.93359375,-0.1875,0.40625,0.46875,0.0,0.0,0.0
1695726246448,-0.16308594,0.13769531,0.921875,-0.125,-0.03125,0.40625,0.0,0.0,0.0
1695726246487,-0.16992188,0.13085938,0.9267578,-0.5,0.03125,0.40625,-43.8125,-16.1875,-89.625
1695726246528,-0.16503906,0.12988281,0.921875,-0.1875,0.15625,0.40625,0.0,0.0,0.0
1695726246567,-0.16796875,0.1328125,0.9326172,-0.125,0.21875,0.40625,0.0,0.0,0.0
1695726246616,-0.16015625,0.13183594,0.9316406,-0.125,0.40625,0.59375,0.0,0.0,0.0
1695726246648,-0.15722656,0.12988281,0.9375,-0.3125,0.40625,0.53125,0.0,0.0,0.0
1695726246688,-0.1640625,0.13671875,0.9316406,-0.25,0.09375,0.28125,0.0,0.0,0.0
1695726246729,-0.16210938,0.12988281,0.94140625,-0.5,0.21875,0.46875,0.0,0.0,0.0
1695726246768,-0.16308594,0.11816406,0.953125,-0.3125,-0.09375,0.40625,0.0,0.0,0.0
1695726246809,-0.16601562,0.12988281,0.921875,-0.3125,-0.03125,0.46875,0.0,0.0,0.0
1695726246847,-0.16601562,0.12792969,0.9472656,-0.4375,0.15625,0.53125,0.0,0.0,0.0
1695726246887,-0.16992188,0.12890625,0.95214844,-0.3125,0.03125,0.53125,0.0,0.0,0.0
1695726246931,-0.15722656,0.12988281,0.93652344,-0.0625,-0.21875,0.53125,0.0,0.0,0.0
1695726246987,-0.16503906,0.13183594,0.9580078,-0.3125,0.15625,0.53125,-44.375,-14.9375,-89.0
1695726247007,-0.15820312,0.12988281,0.94140625,-0.625,0.03125,0.46875,0.0,0.0,0.0
1695726247047,-0.16796875,0.12988281,0.94433594,-0.125,0.09375,0.34375,0.0,0.0,0.0
1695726247087,-0.16894531,0.13574219,0.9404297,-0.6875,0.09375,0.40625,0.0,0.0,0.0
1695726247128,-0.16015625,0.12597656,0.9277344,-0.96875,0.21875,0.46875,0.0,0.0,0.0
1695726247169,-0.16503906,0.13476562,0.9501953,-0.25,0.28125,0.46875,0.0,0.0,0.0
1695726247209,-0.16601562,0.12988281,0.93359375,-0.375,0.03125,0.40625,0.0,0.0,0.0
1695726247248,-0.17382812,0.12988281,0.9326172,-0.5625,-0.03125,0.46875,0.0,0.0,0.0
1695726247287,-0.15820312,0.13574219,0.9296875,-0.375,-0.09375,0.34375,0.0,0.0,0.0
1695726247329,-0.16503906,0.13085938,0.92871094,-0.3125,0.03125,0.40625,0.0,0.0,0.0
1695726247368,-0.15917969,0.12890625,0.9394531,-0.3125,0.21875,0.46875,0.0,0.0,0.0
1695726247427,-0.16601562,0.13378906,0.9345703,-0.75,0.34375,0.46875,0.0,0.0,0.0
1695726247451,-0.16992188,0.12597656,0.9345703,-0.5625,0.21875,0.59375,0.0,0.0,0.0
1695726247490,-0.16796875,0.12890625,0.9277344,-0.4375,0.03125,0.46875,-46.0625,-15.5625,-87.5
1695726247527,-0.16015625,0.125,0.9316406,-0.3125,-0.03125,0.40625,0.0,0.0,0.0
1695726247567,-0.1640625,0.13671875,0.9248047,-0.5625,-0.09375,0.46875,0.0,0.0,0.0
1695726247611,-0.16015625,0.12207031,0.94628906,-0.375,0.28125,0.34375,0.0,0.0,0.0
1695726247649,-0.16796875,0.12402344,0.9423828,-0.5625,0.21875,0.53125,0.0,0.0,0.0
1695726247687,-0.1640625,0.12597656,0.9345703,0.0,0.15625,0.40625,0.0,0.0,0.0
1695726247747,-0.16796875,0.12792969,0.93847656,-0.25,0.15625,0.34375,0.0,0.0,0.0
1695726247767,-0.16210938,0.12597656,0.9423828,-0.4375,-0.03125,0.59375,0.0,0.0,0.0
1695726247807,-0.16796875,0.12207031,0.9501953,-0.3125,0.09375,0.21875,0.0,0.0,0.0
1695726247848,-0.16015625,0.13183594,0.9375,-0.0625,0.09375,0.34375,0.0,0.0,0.0
1695726247888,-0.16308594,0.12890625,0.9345703,-0.25,0.03125,0.40625,0.0,0.0,0.0
1695726247928,-0.17382812,0.12695312,0.9433594,-0.1875,0.03125,0.40625,0.0,0.0,0.0
1695726247967,-0.15917969,0.12792969,0.9316406,0.0625,-0.0625,-0.0625,-43.625,-15.6875,-87.625
1695726248011,-0.16210938,0.12988281,0.9267578,0.125,0.0,0.0,0.0,0.0,0.0
1695726248048,-0.16503906,0.12695312,0.94628906,0.125,0.0625,0.0625,0.0,0.0,0.0
1695726248088,-0.16601562,0.12695312,0.9394531,0.0625,-0.0625,0.0625,0.0,0.0,0.0
1695726248129,-0.16503906,0.13085938,0.94433594,0.1875,0.0,-0.125,0.0,0.0,0.0
1695726248168,-0.15917969,0.12695312,0.921875,0.1875,-0.125,0.0,0.0,0.0,0.0
1695726248208,-0.16894531,0.12890625,0.93652344,-0.125,-0.0625,0.0,0.0,0.0,0.0
1695726248248,-0.16503906,0.12792969,0.92578125,0.0,-0.0625,-0.125,0.0,0.0,0.0
1695726248288,-0.16503906,0.13378906,0.94140625,-0.4375,0.0,0.0,0.0,0.0,0.0
1695726248328,-0.16113281,0.123046875,0.9267578,0.125,0.0625,0.0625,0.0,0.0,0.0
1695726248368,-0.16503906,0.12597656,0.9394531,0.34375,-0.1875,-0.0625,0.0,0.0,0.0
1695726248408,-0.15625,0.12988281,0.9296875,0.0,-0.1875,0.0,0.0,0.0,0.0
1695726248448,-0.16992188,0.12988281,0.9375,-0.0625,-0.125,-0.125,0.0,0.0,0.0
1695726248508,-0.1640625,0.13476562,0.9423828,0.0625,-0.0625,0.0,-45.125,-14.9375,-89.0
1695726248548,-0.17089844,0.12988281,0.94140625,0.125,-0.0625,-0.1875,0.0,0.0,0.0
1695726248567,-0.15527344,0.12011719,0.9326172,0.34375,0.0625,-0.125,0.0,0.0,0.0
1695726248608,-0.16503906,0.12402344,0.9326172,0.125,-0.3125,0.125,0.0,0.0,0.0
1695726248648,-0.16210938,0.12988281,0.9472656,0.40625,-0.3125,-0.21875,0.0,0.0,0.0
1695726248688,-0.16992188,0.12890625,0.9404297,0.3125,-0.1875,0.0,0.0,0.0,0.0
1695726248729,-0.16308594,0.12402344,0.94628906,0.34375,0.0,-0.125,0.0,0.0,0.0
1695726248768,-0.15917969,0.12011719,0.9404297,0.34375,0.0625,0.125,0.0,0.0,0.0
1695726248808,-0.15917969,0.12695312,0.9394531,0.25,0.0625,-0.0625,0.0,0.0,0.0
1695726248848,-0.16601562,0.13183594,0.93652344,0.125,0.1875,0.0625,0.0,0.0,0.0
1695726248887,-0.16308594,0.12597656,0.9423828,0.40625,0.0,-0.125,0.0,0.0,0.0
1695726248928,-0.16210938,0.12402344,0.9423828,0.34375,-0.0625,-0.0625,0.0,0.0,0.0
1695726248967,-0.17675781,0.12597656,0.92285156,0.0625,0.125,-0.21875,-46.0625,-16.625,-87.8125
1695726249031,-0.16601562,0.12890625,0.94628906,0.40625,-0.125,-0.125,0.0,0.0,0.0
1695726249047,-0.17089844,0.13085938,0.9423828,0.125,0.0,-0.125,0.0,0.0,0.0
1695726249088,-0.16308594,0.12597656,0.9375,0.125,0.0625,0.0,0.0,0.0,0.0
1695726249128,-0.16699219,0.12207031,0.9277344,0.0,-0.0625,0.0,0.0,0.0,0.0
1695726249168,-0.15820312,0.12695312,0.9316406,0.125,0.0,0.0,0.0,0.0,0.0
1695726249211,-0.1640625,0.12988281,0.9375,0.0,0.0,0.125,0.0,0.0,0.0
1695726249268,-0.16113281,0.13085938,0.9277344,0.1875,0.0625,0.0,0.0,0.0,0.0
1695726249289,-0.16113281,0.12402344,0.9326172,0.125,0.1875,-0.0625,0.0,0.0,0.0
1695726249328,-0.17382812,0.13183594,0.9511719,0.0625,-0.0625,-0.0625,0.0,0.0,0.0
1695726249367,-0.16601562,0.13183594,0.93847656,0.0625,-0.0625,0.0,0.0,0.0,0.0
1695726249414,-0.16503906,0.13378906,0.9375,0.125,0.0,-0.125,0.0,0.0,0.0
1695726249447,-0.16308594,0.12988281,0.9453125,-0.0625,-0.0625,0.0,0.0,0.0,0.0
1695726249487,-0.16699219,0.12597656,0.9267578,-0.375,0.125,-0.0625,-46.375,-16.1875,-88.875
1695726249530,-0.16992188,0.12890625,0.9316406,0.53125,-0.25,0.0,0.0,0.0,0.0
1695726249568,-0.15722656,0.12109375,0.94921875,0.53125,0.0,0.0625,0.0,0.0,0.0
1695726249608,-0.17382812,0.1328125,0.93066406,0.25,-0.1875,0.0625,0.0,0.0,0.0
1695726249648,-0.16113281,0.13378906,0.93652344,-0.1875,-0.0625,-0.0625,0.0,0.0,0.0
1695726249693,-0.16992188,0.13574219,0.9394531,0.125,-0.1875,-0.125,0.0,0.0,0.0
1695726249728,-0.16601562,0.123046875,0.9355469,0.1875,-0.0625,-0.1875,0.0,0.0,0.0
1695726249767,-0.16796875,0.12890625,0.9423828,-0.0625,-0.0625,0.0,0.0,0.0,0.0
1695726249828,-0.16601562,0.13378906,0.9482422,0.0625,-0.25,0.3125,0.0,0.0,0.0
1695726249848,-0.16113281,0.125,0.93847656,0.40625,0.0,0.0,0.0,0.0,0.0
1695726249889,-0.16992188,0.13085938,0.9423828,0.0625,0.1875,0.25,0.0,0.0,0.0
1695726249948,-0.17089844,0.13085938,0.9423828,-0.5,-0.0625,-0.0625,0.0,0.0,0.0
1695726249968,-0.16113281,0.13183594,0.9326172,0.46875,0.0,-0.21875,-44.6875,-14.1875,-89.4375
1695726250029,-0.17285156,0.12695312,0.9375,-0.1875,0.125,-0.125,0.0,0.0,0.0
1695726250048,-0.15917969,0.12792969,0.9423828,-0.1875,-0.1875,-0.21875,0.0,0.0,0.0
1695726250089,-0.16113281,0.13476562,0.93359375,0.0625,-0.0625,-0.125,0.0,0.0,0.0
1695726250148,-0.16699219,0.13183594,0.93847656,0.0625,-0.0625,-0.0625,0.0,0.0,0.0
1695726250168,-0.15820312,0.125,0.93847656,-0.3125,-0.3125,-0.0625,0.0,0.0,0.0
1695726250212,-0.16308594,0.13378906,0.94433594,-0.4375,-0.0625,-0.0625,0.0,0.0,0.0
1695726250246,-0.16503906,0.123046875,0.93652344,-0.3125,0.125,-0.125,0.0,0.0,0.0
1695726250290,-0.171875,0.12890625,0.9394531,-0.6875,-0.1875,0.0625,0.0,0.0,0.0
1695726250330,-0.17089844,0.12792969,0.9472656,-0.125,-0.1875,-0.0625,0.0,0.0,0.0
1695726250368,-0.16113281,0.12890625,0.9355469,-0.1875,-0.1875,0.0625,0.0,0.0,0.0
1695726250410,-0.16210938,0.12207031,0.9404297,-0.5,-0.0625,0.0625,0.0,0.0,0.0
1695726250466,-0.16992188,0.12597656,0.93652344,-0.3125,0.0,0.0,0.0,0.0,0.0
1695726250488,-0.16113281,0.12207031,0.93359375,-0.25,0.0,0.0625,-44.375,-16.75,-88.6875
1695726250527,-0.16796875,0.12792969,0.9326172,-0.0625,0.0,0.0625,0.0,0.0,0.0
1695726250567,-0.15917969,0.12792969,0.9394531,-0.375,0.125,0.0,0.0,0.0,0.0
1695726250607,-0.16699219,0.12109375,0.9267578,-0.875,0.1875,-0.0625,0.0,0.0,0.0
1695726250649,-0.16015625,0.12597656,0.94628906,-0.125,0.0,0.0625,0.0,0.0,0.0
1695726250688,-0.15722656,0.123046875,0.93652344,0.125,-0.125,0.0,0.0,0.0,0.0
1695726250728,-0.16894531,0.12011719,0.93847656,-0.0625,-0.4375,0.0,0.0,0.0,0.0
1695726250787,-0.17089844,0.12402344,0.9345703,-0.125,-0.3125,-0.125,0.0,0.0,0.0
1695726250808,-0.1640625,0.12792969,0.9394531,0.0,-0.4375,-0.21875,0.0,0.0,0.0
1695726250848,-0.16308594,0.1171875,0.9326172,0.0625,-0.4375,-0.1875,0.0,0.0,0.0
1695726250888,-0.15820312,0.12402344,0.9423828,0.0,-0.3125,-0.125,0.0,0.0,0.0
1695726250929,-0.16113281,0.12597656,0.94628906,0.125,-0.4375,0.0625,0.0,0.0,0.0
1695726250967,-0.16796875,0.12890625,0.93652344,0.40625,-0.5625,0.0,-45.4375,-14.6875,-87.625
1695726251010,-0.16210938,0.12597656,0.9433594,0.125,-0.3125,-0.0625,0.0,0.0,0.0
1695726251047,-0.16699219,0.12695312,0.9248047,0.0625,-0.3125,0.0,0.0,0.0,0.0
1695726251088,-0.16308594,0.12792969,0.9560547,0.0625,-0.125,0.1875,0.0,0.0,0.0
1695726251129,-0.1640625,0.12402344,0.93066406,0.0,0.0,0.1875,0.0,0.0,0.0
1695726251167,-0.16210938,0.12011719,0.9404297,0.125,-0.0625,-0.0625,0.0,0.0,0.0
1695726251208,-0.16601562,0.12011719,0.93652344,0.25,-0.1875,-0.21875,0.0,0.0,0.0
1695726251247,-0.1640625,0.1171875,0.93652344,0.0625,-0.0625,-0.125,0.0,0.0,0.0
1695726251288,-0.1640625,0.12890625,0.94140625,0.1875,0.0,-0.125,0.0,0.0,0.0
1695726251328,-0.1640625,0.12695312,0.9375,0.1875,0.0,0.0,0.0,0.0,0.0
1695726251368,-0.171875,0.115234375,0.9423828,0.0625,-0.0625,0.0,0.0,0.0,0.0
1695726251408,-0.16894531,0.12695312,0.94433594,-0.0625,-0.125,0.0625,0.0,0.0,0.0
1695726251448,-0.171875,0.12890625,0.92578125,0.125,-0.125,0.0625,0.0,0.0,0.0
1695726251488,-0.16210938,0.12207031,0.9404297,0.0625,-0.125,-0.0625,-45.625,-15.875,-86.75
1695726251548,-0.16308594,0.12402344,0.9345703,0.0625,-0.0625,-0.125,0.0,0.0,0.0
1695726251567,-0.17089844,0.12890625,0.94140625,0.125,0.0,-0.125,0.0,0.0,0.0
1695726251608,-0.16113281,0.12402344,0.9375,0.125,-0.0625,-0.125,0.0,0.0,0.0
1695726251648,-0.16015625,0.125,0.9267578,0.0625,0.0,0.0625,0.0,0.0,0.0
1695726251689,-0.17480469,0.12597656,0.9248047,-0.0625,-0.25,0.0,0.0,0.0,0.0
1695726251728,-0.16015625,0.12402344,0.9423828,0.0,-0.1875,-0.125,0.0,0.0,0.0
1695726251767,-0.16113281,0.123046875,0.9199219,-0.0625,0.125,-0.0625,0.0,0.0,0.0
1695726251808,-0.16992188,0.12695312,0.93847656,-0.0625,-0.25,0.1875,0.0,0.0,0.0
1695726251848,-0.16113281,0.12695312,0.9394531,0.34375,-0.125,-0.125,0.0,0.0,0.0
1695726251886,-0.15234375,0.12597656,0.9345703,0.65625,-0.4375,-0.1875,0.0,0.0,0.0
1695726251927,-0.16113281,0.125,0.9355469,0.25,-0.25,-0.21875,0.0,0.0,0.0
1695726251967,-0.16992188,0.123046875,0.9316406,0.0625,-0.1875,-0.0625,-44.6875,-15.25,-88.375
1695726252009,-0.16503906,0.12011719,0.9375,0.3125,-0.125,-0.21875,0.0,0.0,0.0
1695726252048,-0.16894531,0.12597656,0.9326172,0.65625,0.0,-0.1875,0.0,0.0,0.0
1695726252086,-0.16699219,0.1328125,0.94140625,-0.0625,-0.25,0.0625,0.0,0.0,0.0
1695726252129,-0.16503906,0.119140625,0.93652344,0.125,0.0,0.0,0.0,0.0,0.0
1695726252167,-0.15429688,0.12792969,0.9423828,0.53125,-0.25,0.0,0.0,0.0,0.0
1695726252208,-0.1640625,0.125,0.9277344,0.0625,-0.0625,0.125,0.0,0.0,0.0
1695726252247,-0.16210938,0.12011719,0.9472656,0.125,0.0,-0.0625,0.0,0.0,0.0
1695726252308,-0.16894531,0.1171875,0.93652344,0.40625,0.125,-0.0625,0.0,0.0,0.0
1695726252329,-0.15820312,0.12792969,0.94140625,0.125,0.125,0.0625,0.0,0.0,0.0
1695726252368,-0.1640625,0.12402344,0.9277344,0.25,0.0625,0.0,0.0,0.0,0.0
1695726252410,-0.16113281,0.12597656,0.92578125,0.3125,0.0625,-0.21875,0.0,0.0,0.0
1695726252455,-0.16308594,0.12988281,0.93359375,0.25,0.0,-0.0625,0.0,0.0,0.0
1695726252488,-0.16992188,0.13476562,0.92871094,0.1875,-0.125,-0.1875,-45.125,-15.6875,-87.9375
1695726252528,-0.16210938,0.13085938,0.9433594,0.0625,-0.125,0.0,0.0,0.0,0.0
1695726252568,-0.16992188,0.125,0.94140625,0.0625,-0.0625,0.0,0.0,0.0,0.0
1695726252607,-0.16796875,0.123046875,0.94140625,0.0625,-0.1875,-0.0625,0.0,0.0,0.0
1695726252647,-0.16992188,0.12011719,0.9394531,0.0,0.0,0.0625,0.0,0.0,0.0
1695726252687,-0.16015625,0.125,0.9355469,0.0,-0.125,-0.0625,0.0,0.0,0.0
1695726252728,-0.1640625,0.12402344,0.9316406,0.3125,-0.0625,0.0,0.0,0.0,0.0
1695726252767,-0.16796875,0.13378906,0.9375,0.125,0.0,-0.0625,0.0,0.0,0.0
1695726252807,-0.16210938,0.12597656,0.9394531,0.0625,0.0,0.0625,0.0,0.0,0.0
1695726252846,-0.16699219,0.123046875,0.9375,-0.0625,0.0,-0.125,0.0,0.0,0.0
1695726252889,-0.16992188,0.123046875,0.92578125,-0.0625,-0.0625,0.0625,0.0,0.0,0.0
1695726252927,-0.16796875,0.12011719,0.9404297,0.125,-0.1875,0.1875,0.0,0.0,0.0
1695726252970,-0.16308594,0.12011719,0.9326172,-0.1875,-0.1875,0.0625,-45.875,-14.1875,-89.0
1695726253008,-0.16601562,0.12890625,0.9277344,-0.5,-0.0625,0.0,0.0,0.0,0.0
1695726253069,-0.17089844,0.1171875,0.9394531,-0.5,-0.1875,-0.1875,0.0,0.0,0.0
1695726253087,-0.17382812,0.12988281,0.9394531,-0.4375,-0.1875,0.125,0.0,0.0,0.0
1695726253128,-0.16601562,0.12011719,0.9345703,-0.0625,-0.125,-0.1875,0.0,0.0,0.0
1695726253166,-0.15917969,0.12792969,0.9404297,-0.1875,-0.375,-0.0625,0.0,0.0,0.0
1695726253207,-0.16796875,0.1171875,0.9433594,-0.375,0.0,0.125,0.0,0.0,0.0
1695726253247,-0.16601562,0.12109375,0.93066406,-0.375,-0.375,0.0625,0.0,0.0,0.0
1695726253288,-0.16308594,0.125,0.9345703,-0.125,-0.375,-0.0625,0.0,0.0,0.0
1695726253327,-0.16503906,0.123046875,0.9326172,-0.25,-0.1875,-0.21875,0.0,0.0,0.0
1695726253368,-0.16503906,0.12402344,0.9472656,-0.1875,-0.3125,0.0,0.0,0.0,0.0
1695726253407,-0.1640625,0.11621094,0.93847656,-0.25,-0.125,-0.125,0.0,0.0,0.0
1695726253448,-0.16894531,0.12207031,0.9316406,0.0,-0.375,-0.125,0.0,0.0,0.0
1695726253488,-0.16210938,0.1328125,0.94140625,-0.125,-0.125,-0.1875,-44.6875,-16.75,-88.375
1695726253526,-0.15917969,0.11816406,0.92871094,-0.375,-0.125,-0.0625,0.0,0.0,0.0
1695726253567,-0.16894531,0.1171875,0.93652344,-0.25,-0.3125,-0.1875,0.0,0.0,0.0
1695726253609,-0.16503906,0.125,0.94140625,0.0625,-0.25,-0.0625,0.0,0.0,0.0
1695726253648,-0.16601562,0.115234375,0.9404297,-0.1875,-0.125,-0.0625,0.0,0.0,0.0
1695726253708,-0.16210938,0.123046875,0.9267578,-0.375,0.0,-0.0625,0.0,0.0,0.0
1695726253726,-0.16015625,0.12207031,0.93847656,0.0625,-0.1875,-0.125,0.0,0.0,0.0
1695726253768,-0.1640625,0.12207031,0.9404297,-0.0625,0.0,0.125,0.0,0.0,0.0
1695726253827,-0.16601562,0.12207031,0.9394531,-0.5625,0.0,0.0,0.0,0.0,0.0
1695726253847,-0.16015625,0.111328125,0.9345703,-0.5625,-0.0625,-0.0625,0.0,0.0,0.0
1695726253889,-0.16503906,0.1171875,0.94628906,-0.0625,0.0625,0.0,0.0,0.0,0.0
1695726253928,-0.16796875,0.11621094,0.9316406,0.0625,-0.1875,-0.125,0.0,0.0,0.0
1695726253968,-0.16113281,0.12792969,0.9326172,-0.125,-0.125,-0.125,-44.125,-16.75,-88.375
1695726254008,-0.16992188,0.12109375,0.9326172,0.125,-0.3125,-0.21875,0.0,0.0,0.0
1695726254048,-0.171875,0.119140625,0.93847656,0.0,-0.3125,-0.1875,0.0,0.0,0.0
1695726254090,-0.16308594,0.12597656,0.93847656,-0.125,-0.3125,0.0,0.0,0.0,0.0
1695726254127,-0.16210938,0.123046875,0.9345703,0.0,-0.125,0.0,0.0,0.0,0.0
1695726254167,-0.17285156,0.12207031,0.96191406,0.53125,-0.1875,0.0625,0.0,0.0,0.0
1695726254207,-0.16503906,0.11621094,0.9404297,0.25,-0.4375,0.0,0.0,0.0,0.0
1695726254248,-0.17089844,0.119140625,0.94433594,-0.125,-0.1875,0.0,0.0,0.0,0.0
1695726254287,-0.16601562,0.11816406,0.93652344,0.125,-0.25,-0.0625,0.0,0.0,0.0
1695726254333,-0.16699219,0.11425781,0.9375,0.1875,-0.125,-0.21875,0.0,0.0,0.0
1695726254373,-0.16308594,0.123046875,0.9375,0.0625,0.0625,0.0625,0.0,0.0,0.0
1695726254407,-0.16503906,0.11816406,0.9423828,0.3125,0.0,0.125,0.0,0.0,0.0
1695726254454,-0.16894531,0.115234375,0.94140625,0.1875,0.21875,-0.03125,0.0,0.0,0.0
1695726254491,-0.15332031,0.12011719,0.9404297,0.0625,0.03125,-0.03125,-44.6875,-14.1875,-89.4375
1695726254527,-0.16601562,0.12597656,0.9316406,0.3125,-0.03125,-0.15625,0.0,0.0,0.0
1695726254588,-0.17382812,0.11621094,0.93847656,0.3125,0.15625,-0.09375,0.0,0.0,0.0
1695726254607,-0.16796875,0.125,0.9404297,0.25,-0.03125,0.09375,0.0,0.0,0.0
1695726254647,-0.16308594,0.12109375,0.9394531,0.25,0.15625,0.09375,0.0,0.0,0.0
1695726254689,-0.16894531,0.111328125,0.9472656,0.125,0.09375,0.03125,0.0,0.0,0.0
1695726254728,-0.16503906,0.11035156,0.93359375,0.125,0.28125,0.09375,0.0,0.0,0.0
1695726254788,-0.16210938,0.12597656,0.94140625,0.1875,0.15625,0.15625,0.0,0.0,0.0
1695726254808,-0.16503906,0.12597656,0.92578125,-0.0625,0.28125,0.09375,0.0,0.0,0.0
1695726254848,-0.17578125,0.1171875,0.9433594,-0.1875,0.28125,-0.03125,0.0,0.0,0.0
1695726254888,-0.16796875,0.123046875,0.9423828,-0.25,0.28125,-0.03125,0.0,0.0,0.0
1695726254930,-0.16308594,0.12402344,0.9423828,0.375,0.28125,-0.09375,0.0,0.0,0.0
1695726254971,-0.15917969,0.12109375,0.9267578,0.78125,-0.28125,-0.09375,-45.125,-16.0,-89.0
1695726255008,-0.16601562,0.11816406,0.9404297,0.5625,-0.09375,-0.03125,0.0,0.0,0.0
1695726255048,-0.17382812,0.11425781,0.9238281,-0.25,-0.46875,-0.03125,0.0,0.0,0.0
1695726255090,-0.16210938,0.11230469,0.9404297,0.125,0.03125,0.03125,0.0,0.0,0.0
1695726255127,-0.16210938,0.12207031,0.93847656,0.84375,0.21875,-0.15625,0.0,0.0,0.0
1695726255175,-0.15625,0.123046875,0.94140625,0.3125,-0.03125,0.09375,0.0,0.0,0.0
1695726255208,-0.16699219,0.12597656,0.9472656,0.0,0.09375,-0.03125,0.0,0.0,0.0
1695726255248,-0.15820312,0.11621094,0.9345703,0.6875,-0.09375,-0.15625,0.0,0.0,0.0
1695726255291,-0.16015625,0.12011719,0.92871094,0.25,0.40625,-0.09375,0.0,0.0,0.0
1695726255349,-0.17285156,0.12207031,0.9326172,0.5,0.21875,-0.15625,0.0,0.0,0.0
1695726255370,-0.16796875,0.12109375,0.9423828,0.78125,0.15625,-0.09375,0.0,0.0,0.0
1695726255409,-0.17382812,0.1171875,0.9404297,0.5625,0.40625,0.15625,0.0,0.0,0.0
1695726255448,-0.16601562,0.12402344,0.9248047,0.1875,0.15625,0.09375,0.0,0.0,0.0
1695726255496,-0.16308594,0.11816406,0.93359375,0.25,0.28125,-0.03125,-43.625,-15.6875,-88.6875
1695726255526,-0.16796875,0.119140625,0.9482422,0.625,0.15625,-0.09375,0.0,0.0,0.0
1695726255570,-0.17089844,0.11816406,0.9433594,0.125,0.21875,-0.03125,0.0,0.0,0.0
1695726255612,-0.16894531,0.12695312,0.9404297,0.125,0.03125,-0.03125,0.0,0.0,0.0
1695726255669,-0.16503906,0.119140625,0.93359375,0.4375,0.15625,-0.09375,0.0,0.0,0.0
1695726255688,-0.16601562,0.123046875,0.93847656,0.0625,0.03125,-0.03125,0.0,0.0,0.0
1695726255728,-0.16894531,0.11816406,0.9433594,-0.125,0.21875,-0.03125,0.0,0.0,0.0
1695726255768,-0.16992188,0.125,0.9375,0.0625,0.40625,-0.03125,0.0,0.0,0.0
1695726255808,-0.16113281,0.12207031,0.95703125,0.1875,0.28125,0.03125,0.0,0.0,0.0
1695726255848,-0.16992188,0.12402344,0.94628906,0.25,0.28125,0.09375,0.0,0.0,0.0
1695726255888,-0.15917969,0.11621094,0.9482422,0.375,-0.03125,-0.09375,0.0,0.0,0.0
1695726255927,-0.171875,0.123046875,0.9316406,-0.125,0.15625,-0.15625,0.0,0.0,0.0
1695726255968,-0.16210938,0.11621094,0.93359375,-0.375,-0.03125,-0.03125,-45.0,-16.1875,-87.1875
1695726256008,-0.17480469,0.12011719,0.94921875,0.125,-0.15625,-0.25,0.0,0.0,0.0
1695726256050,-0.16601562,0.12207031,0.9394531,0.125,0.28125,0.03125,0.0,0.0,0.0
1695726256108,-0.16894531,0.115234375,0.94140625,-0.25,-0.03125,0.15625,0.0,0.0,0.0
1695726256128,-0.16699219,0.12011719,0.9277344,-0.5,0.03125,0.09375,0.0,0.0,0.0
1695726256168,-0.15625,0.125,0.9404297,-0.25,-0.15625,0.09375,0.0,0.0,0.0
1695726256208,-0.1640625,0.1171875,0.9394531,0.1875,-0.28125,-0.09375,0.0,0.0,0.0
1695726256247,-0.16015625,0.111328125,0.9345703,0.0,-0.40625,0.03125,0.0,0.0,0.0
1695726256288,-0.1640625,0.111328125,0.9472656,-0.1875,0.15625,0.15625,0.0,0.0,0.0
1695726256328,-0.17089844,0.12011719,0.94628906,0.0625,0.28125,-0.15625,0.0,0.0,0.0
1695726256368,-0.16503906,0.11816406,0.9472656,0.1875,0.28125,-0.15625,0.0,0.0,0.0
1695726256408,-0.16210938,0.11035156,0.9404297,0.125,0.21875,-0.09375,0.0,0.0,0.0
1695726256448,-0.15917969,0.119140625,0.9355469,0.125,0.28125,-0.03125,0.0,0.0,0.0
1695726256488,-0.1640625,0.119140625,0.94140625,0.0,0.28125,0.03125,-45.4375,-16.4375,-87.625
1695726256527,-0.16113281,0.12597656,0.93847656,0.0,0.40625,0.09375,0.0,0.0,0.0
1695726256567,-0.1640625,0.11816406,0.93847656,0.3125,0.15625,0.09375,0.0,0.0,0.0
1695726256608,-0.16503906,0.1171875,0.9345703,-0.0625,0.21875,0.03125,0.0,0.0,0.0
1695726256648,-0.171875,0.11035156,0.9296875,-0.25,0.03125,0.03125,0.0,0.0,0.0
1695726256688,-0.16503906,0.10253906,0.9326172,-0.1875,0.5,-0.15625,0.0,0.0,0.0
1695726256727,-0.16699219,0.125,0.9453125,0.3125,-0.28125,-0.03125,0.0,0.0,0.0
1695726256768,-0.16699219,0.11621094,0.9472656,0.5,0.28125,-0.09375,0.0,0.0,0.0
1695726256808,-0.16503906,0.123046875,0.9433594,0.25,0.03125,0.15625,0.0,0.0,0.0
1695726256867,-0.17675781,0.12207031,0.9453125,0.1875,-0.21875,-0.09375,0.0,0.0,0.0
1695726256888,-0.16699219,0.12597656,0.9423828,0.125,-0.28125,-0.09375,0.0,0.0,0.0
1695726256927,-0.17480469,0.115234375,0.94140625,0.5625,-0.15625,0.15625,0.0,0.0,0.0
1695726256967,-0.16015625,0.1171875,0.9404297,0.5,0.15625,-0.03125,-45.4375,-16.0,-89.4375
1695726257010,-0.16992188,0.115234375,0.9355469,0.125,-0.40625,0.15625,0.0,0.0,0.0
1695726257053,-0.16796875,0.12207031,0.9375,0.125,-0.28125,0.03125,0.0,0.0,0.0
1695726257087,-0.16601562,0.12207031,0.93652344,0.125,-0.53125,-0.03125,0.0,0.0,0.0
1695726257127,-0.16308594,0.115234375,0.9316406,-0.125,-0.21875,0.09375,0.0,0.0,0.0
1695726257172,-0.1640625,0.1171875,0.93847656,0.0,-0.15625,-0.03125,0.0,0.0,0.0
1695726257218,-0.16503906,0.11816406,0.9404297,-0.0625,-0.03125,0.03125,0.0,0.0,0.0
1695726257247,-0.16601562,0.11621094,0.9375,0.5625,-0.09375,0.09375,0.0,0.0,0.0
1695726257289,-0.16113281,0.11425781,0.93652344,0.375,0.09375,-0.03125,0.0,0.0,0.0
1695726257328,-0.16113281,0.115234375,0.9355469,0.125,-0.03125,0.03125,0.0,0.0,0.0
1695726257370,-0.16992188,0.11230469,0.9326172,0.0,-0.09375,-0.03125,0.0,0.0,0.0
1695726257409,-0.16210938,0.12988281,0.9404297,0.4375,-0.03125,-0.15625,0.0,0.0,0.0
1695726257449,-0.15917969,0.119140625,0.92871094,0.25,0.09375,-0.03125,0.0,0.0,0.0
1695726257489,-0.16796875,0.11816406,0.9453125,0.3125,0.03125,0.09375,-45.3125,-15.125,-89.125
1695726257529,-0.16308594,0.119140625,0.9326172,0.1875,0.09375,0.03125,0.0,0.0,0.0
1695726257569,-0.16796875,0.115234375,0.9423828,0.0625,0.15625,-0.03125,0.0,0.0,0.0
1695726257628,-0.16601562,0.119140625,0.94628906,-0.0625,-0.09375,0.09375,0.0,0.0,0.0
1695726257648,-0.16601562,0.115234375,0.94433594,0.125,0.09375,-0.03125,0.0,0.0,0.0
1695726257689,-0.16796875,0.11621094,0.9375,0.125,0.15625,0.09375,0.0,0.0,0.0
1695726257727,-0.16796875,0.11621094,0.9433594,0.0,-0.09375,0.15625,0.0,0.0,0.0
1695726257771,-0.16796875,0.115234375,0.93066406,0.125,0.03125,-0.03125,0.0,0.0,0.0
1695726257807,-0.16210938,0.11621094,0.9267578,0.25,-0.03125,-0.03125,0.0,0.0,0.0
1695726257850,-0.16503906,0.11621094,0.9394531,-0.25,0.15625,-0.09375,0.0,0.0,0.0
1695726257890,-0.16992188,0.11230469,0.94433594,-0.1875,0.21875,0.03125,0.0,0.0,0.0
1695726257927,-0.1640625,0.11816406,0.9453125,0.25,0.34375,0.03125,0.0,0.0,0.0
1695726257967,-0.15039062,0.12402344,0.9296875,0.125,-0.15625,0.21875,-44.375,-16.75,-89.4375
1695726258007,-0.1640625,0.12011719,0.9267578,-0.0625,0.03125,0.03125,0.0,0.0,0.0
1695726258048,-0.16601562,0.11816406,0.93652344,0.125,-0.03125,-0.15625,0.0,0.0,0.0
1695726258088,-0.16601562,0.119140625,0.9589844,0.1875,0.03125,-0.09375,0.0,0.0,0.0
1695726258126,-0.16308594,0.1171875,0.9453125,0.4375,0.21875,-0.09375,0.0,0.0,0.0
1695726258172,-0.16210938,0.11425781,0.9355469,0.25,0.03125,-0.03125,0.0,0.0,0.0
1695726258208,-0.16992188,0.1171875,0.9277344,0.1875,0.03125,0.09375,0.0,0.0,0.0
1695726258249,-0.171875,0.12597656,0.93847656,0.4375,-0.40625,-0.09375,0.0,0.0,0.0
1695726258287,-0.17089844,0.1171875,0.9248047,0.4375,-0.15625,-0.09375,0.0,0.0,0.0
1695726258327,-0.16894531,0.12207031,0.92871094,0.5,-0.09375,0.03125,0.0,0.0,0.0
1695726258387,-0.16503906,0.1171875,0.93652344,0.625,-0.15625,0.15625,0.0,0.0,0.0
1695726258407,-0.16992188,0.12011719,0.93847656,0.4375,-0.15625,0.09375,0.0,0.0,0.0
1695726258448,-0.16210938,0.11328125,0.9375,0.375,-0.09375,-0.09375,0.0,0.0,0.0
1695726258487,-0.1640625,0.12109375,0.9375,0.125,0.03125,-0.03125,-45.3125,-15.5625,-88.5625
1695726258528,-0.16308594,0.11621094,0.93359375,0.3125,0.15625,-0.03125,0.0,0.0,0.0
1695726258568,-0.16015625,0.11230469,0.9433594,0.3125,0.09375,0.09375,0.0,0.0,0.0
1695726258608,-0.15917969,0.115234375,0.9267578,0.375,0.21875,0.03125,0.0,0.0,0.0
1695726258647,-0.16113281,0.11621094,0.93359375,0.1875,0.15625,0.09375,0.0,0.0,0.0
1695726258688,-0.17480469,0.12011719,0.9433594,0.25,0.15625,-0.15625,0.0,0.0,0.0
1695726258727,-0.16113281,0.11816406,0.9355469,0.4375,0.09375,-0.15625,0.0,0.0,0.0
1695726258768,-0.17480469,0.123046875,0.9453125,0.375,0.21875,0.03125,0.0,0.0,0.0
1695726258808,-0.16210938,0.125,0.9404297,0.1875,0.21875,0.03125,0.0,0.0,0.0
1695726258847,-0.16894531,0.123046875,0.9423828,0.1875,0.21875,0.09375,0.0,0.0,0.0
1695726258888,-0.16308594,0.119140625,0.9326172,0.71875,-0.03125,-0.09375,0.0,0.0,0.0
1695726258928,-0.16894531,0.119140625,0.9394531,0.5625,0.03125,-0.15625,0.0,0.0,0.0
1695726258967,-0.17382812,0.123046875,0.94433594,0.3125,0.09375,0.03125,-45.875,-15.25,-89.0
1695726259036,-0.15332031,0.119140625,0.9404297,0.625,0.09375,0.03125,0.0,0.0,0.0
1695726259048,-0.16503906,0.11621094,0.9423828,0.3125,0.21875,0.03125,0.0,0.0,0.0
1695726259087,-0.17285156,0.11035156,0.95410156,0.1875,0.15625,0.03125,0.0,0.0,0.0
1695726259147,-0.15917969,0.119140625,0.94628906,-0.0625,0.15625,-0.03125,0.0,0.0,0.0
1695726259167,-0.171875,0.115234375,0.9345703,0.78125,0.15625,0.03125,0.0,0.0,0.0
1695726259208,-0.1640625,0.115234375,0.9433594,0.84375,-0.28125,-0.09375,0.0,0.0,0.0
1695726259249,-0.16503906,0.125,0.95410156,0.5,0.15625,0.03125,0.0,0.0,0.0
1695726259288,-0.17578125,0.1328125,0.93652344,0.3125,0.09375,-0.09375,0.0,0.0,0.0
1695726259327,-0.17089844,0.12011719,0.9326172,0.25,0.03125,-0.15625,0.0,0.0,0.0
1695726259368,-0.171875,0.123046875,0.9375,0.5625,0.15625,-0.09375,0.0,0.0,0.0
1695726259408,-0.17382812,0.12109375,0.9267578,0.5,0.34375,-0.09375,0.0,0.0,0.0
1695726259448,-0.16210938,0.12109375,0.93359375,0.5625,0.03125,0.15625,0.0,0.0,0.0
1695726259488,-0.16992188,0.11621094,0.9423828,0.0625,-0.53125,0.15625,-45.125,-15.6875,-89.0
1695726259528,-0.16503906,0.12402344,0.9394531,0.25,-0.03125,0.15625,0.0,0.0,0.0
1695726259568,-0.1640625,0.12597656,0.92871094,0.3125,0.15625,-0.09375,0.0,0.0,0.0
1695726259609,-0.16503906,0.12695312,0.9404297,0.1875,0.40625,-0.03125,0.0,0.0,0.0
1695726259647,-0.15527344,0.12109375,0.9267578,-0.3125,0.34375,0.21875,0.0,0.0,0.0
1695726259688,-0.15917969,0.115234375,0.9394531,0.1875,0.5,0.15625,0.0,0.0,0.0
1695726259727,-0.15625,0.12402344,0.9482422,0.375,0.34375,-0.15625,0.0,0.0,0.0
1695726259773,-0.16699219,0.1171875,0.94140625,0.125,0.21875,-0.09375,0.0,0.0,0.0
1695726259809,-0.15722656,0.12207031,0.95703125,0.1875,-0.28125,-0.25,0.0,0.0,0.0
1695726259850,-0.16699219,0.1171875,0.9482422,0.25,0.03125,-0.03125,0.0,0.0,0.0
1695726259907,-0.171875,0.12109375,0.9433594,-0.375,0.03125,0.09375,0.0,0.0,0.0
1695726259928,-0.16894531,0.123046875,0.9345703,0.0,0.03125,0.03125,0.0,0.0,0.0
1695726259968,-0.15820312,0.12597656,0.94628906,0.25,0.15625,0.09375,-46.375,-15.5625,-89.625
1695726260008,-0.16015625,0.1171875,0.93847656,0.25,0.03125,-0.09375,0.0,0.0,0.0
1695726260050,-0.16699219,0.115234375,0.9316406,0.3125,-0.15625,-0.03125,0.0,0.0,0.0
1695726260088,-0.17480469,0.11621094,0.94140625,0.5,-0.09375,-0.1875,0.0,0.0,0.0
1695726260128,-0.171875,0.109375,0.93847656,0.375,-0.03125,-0.03125,0.0,0.0,0.0
1695726260170,-0.16503906,0.12011719,0.93847656,0.1875,0.15625,0.03125,0.0,0.0,0.0
1695726260207,-0.1640625,0.12695312,0.93359375,0.125,0.28125,0.09375,0.0,0.0,0.0
1695726260247,-0.16503906,0.1171875,0.9345703,0.1875,0.15625,0.03125,0.0,0.0,0.0
1695726260290,-0.17675781,0.119140625,0.9453125,0.6875,0.28125,0.03125,0.0,0.0,0.0
1695726260327,-0.16015625,0.123046875,0.9394531,0.375,0.09375,-0.09375,0.0,0.0,0.0
1695726260370,-0.16992188,0.12011719,0.92089844,0.0,0.09375,-0.03125,0.0,0.0,0.0
1695726260408,-0.16210938,0.1171875,0.93359375,-0.0625,0.15625,-0.15625,0.0,0.0,0.0
1695726260468,-0.17480469,0.115234375,0.9394531,0.0625,-0.03125,-0.03125,0.0,0.0,0.0
1695726260488,-0.16015625,0.12011719,0.9375,0.3125,0.34375,0.03125,-45.0,-16.625,-88.25
1695726260528,-0.15917969,0.119140625,0.94628906,0.0625,-0.28125,0.09375,0.0,0.0,0.0
1695726260567,-0.17089844,0.123046875,0.92285156,0.25,0.21875,0.03125,0.0,0.0,0.0
1695726260606,-0.17089844,0.125,0.93359375,-0.1875,-0.15625,0.09375,0.0,0.0,0.0
1695726260667,-0.17285156,0.115234375,0.93359375,-0.25,-0.15625,0.09375,0.0,0.0,0.0
1695726260688,-0.16015625,0.12109375,0.9433594,-0.125,-0.03125,-0.09375,0.0,0.0,0.0
1695726260727,-0.16992188,0.109375,0.9550781,-0.25,0.15625,0.09375,0.0,0.0,0.0
1695726260775,-0.16894531,0.12011719,0.9433594,-0.4375,0.09375,0.15625,0.0,0.0,0.0
1695726260807,-0.17382812,0.11425781,0.9404297,0.0625,0.03125,0.03125,0.0,0.0,0.0
1695726260847,-0.16601562,0.1171875,0.9394531,-0.375,0.09375,-0.03125,0.0,0.0,0.0
1695726260888,-0.16601562,0.123046875,0.9472656,-0.5,0.09375,-0.03125,0.0,0.0,0.0
1695726260928,-0.16113281,0.1171875,0.9355469,-0.25,-0.21875,-0.09375,0.0,0.0,0.0
1695726260968,-0.16601562,0.115234375,0.9423828,-0.375,0.15625,0.03125,-45.125,-16.0,-89.4375
1695726261008,-0.16699219,0.10839844,0.9453125,-0.4375,0.15625,0.09375,0.0,0.0,0.0
1695726261048,-0.15917969,0.11425781,0.9375,-0.0625,0.03125,-0.03125,0.0,0.0,0.0
1695726261088,-0.17480469,0.111328125,0.92089844,0.0625,0.15625,-0.09375,0.0,0.0,0.0
1695726261128,-0.16796875,0.12011719,0.9316406,0.125,0.21875,-0.15625,0.0,0.0,0.0
1695726261168,-0.16601562,0.11816406,0.93066406,0.125,-0.03125,0.15625,0.0,0.0,0.0
1695726261208,-0.16308594,0.111328125,0.9345703,0.0,0.03125,0.15625,0.0,0.0,0.0
1695726261248,-0.1640625,0.10839844,0.93652344,0.0625,0.09375,-0.09375,0.0,0.0,0.0
1695726261288,-0.16601562,0.11328125,0.9277344,-0.96875,0.34375,0.09375,0.0,0.0,0.0
1695726261328,-0.17285156,0.10449219,0.9482422,-0.25,0.15625,0.03125,0.0,0.0,0.0
1695726261368,-0.16113281,0.11328125,0.94140625,-0.0625,-0.03125,-0.09375,0.0,0.0,0.0
1695726261427,-0.16601562,0.115234375,0.9453125,0.0625,-0.15625,0.03125,0.0,0.0,0.0
1695726261447,-0.16308594,0.11621094,0.9423828,0.125,0.03125,-0.03125,0.0,0.0,0.0
1695726261488,-0.18066406,0.11816406,0.93066406,0.1875,-0.09375,-0.03125,-45.0,-16.625,-87.5
1695726261529,-0.16796875,0.11230469,0.9404297,0.125,-0.09375,-0.09375,0.0,0.0,0.0
1695726261569,-0.1640625,0.11425781,0.93652344,0.0625,0.09375,0.03125,0.0,0.0,0.0
1695726261608,-0.16894531,0.111328125,0.9394531,0.3125,0.28125,0.15625,0.0,0.0,0.0
1695726261648,-0.16601562,0.111328125,0.9394531,0.25,-0.09375,0.09375,0.0,0.0,0.0
1695726261688,-0.17089844,0.109375,0.95703125,0.25,0.03125,-0.03125,0.0,0.0,0.0
1695726261728,-0.171875,0.111328125,0.9296875,0.1875,-0.03125,-0.09375,0.0,0.0,0.0
1695726261768,-0.16796875,0.10839844,0.9433594,0.25,-0.03125,0.03125,0.0,0.0,0.0
1695726261807,-0.17089844,0.111328125,0.94921875,0.25,0.09375,0.03125,0.0,0.0,0.0
1695726261849,-0.17480469,0.1171875,0.9433594,0.375,0.15625,0.03125,0.0,0.0,0.0
1695726261888,-0.16894531,0.115234375,0.9345703,0.3125,-0.03125,0.03125,0.0,0.0,0.0
1695726261931,-0.16601562,0.109375,0.9277344,0.3125,0.03125,-0.09375,0.0,0.0,0.0
1695726261968,-0.16015625,0.11230469,0.92578125,0.3125,0.21875,-0.03125,-45.625,-17.375,-89.875
1695726262008,-0.16992188,0.11621094,0.92871094,0.3125,0.03125,-0.03125,0.0,0.0,0.0
1695726262049,-0.1640625,0.10644531,0.94433594,0.4375,0.09375,0.09375,0.0,0.0,0.0
1695726262088,-0.16894531,0.1171875,0.9238281,0.3125,-0.09375,-0.03125,0.0,0.0,0.0
1695726262128,-0.17382812,0.111328125,0.9267578,0.125,-0.09375,0.03125,0.0,0.0,0.0
1695726262188,-0.16503906,0.103515625,0.94433594,0.4375,0.15625,-0.15625,0.0,0.0,0.0
1695726262207,-0.16894531,0.11035156,0.95703125,0.125,0.09375,0.09375,0.0,0.0,0.0
1695726262249,-0.17675781,0.115234375,0.94433594,0.125,-0.03125,0.03125,0.0,0.0,0.0
1695726262288,-0.16601562,0.11816406,0.9394531,0.375,0.21875,0.09375,0.0,0.0,0.0
1695726262328,-0.16699219,0.115234375,0.94433594,0.125,0.03125,-0.03125,0.0,0.0,0.0
1695726262368,-0.18066406,0.119140625,0.93652344,0.0,0.21875,-0.03125,0.0,0.0,0.0
1695726262408,-0.17285156,0.119140625,0.94140625,0.125,-0.15625,0.03125,0.0,0.0,0.0
1695726262451,-0.16992188,0.1171875,0.9423828,0.84375,0.09375,-0.09375,0.0,0.0,0.0
1695726262488,-0.16601562,0.111328125,0.9423828,0.625,-0.40625,-0.09375,-45.3125,-16.9375,-90.1875
1695726262528,-0.16308594,0.111328125,0.9404297,0.1875,-0.03125,0.09375,0.0,0.0,0.0
1695726262580,-0.17089844,0.11621094,0.94433594,0.375,-0.21875,-0.03125,0.0,0.0,0.0
1695726262607,-0.17675781,0.1171875,0.94140625,0.375,-0.09375,-0.03125,0.0,0.0,0.0
1695726262647,-0.17675781,0.1171875,0.9511719,0.375,0.09375,-0.09375,0.0,0.0,0.0
1695726262688,-0.16601562,0.10644531,0.9375,0.0,0.21875,0.09375,0.0,0.0,0.0
1695726262728,-0.16503906,0.11230469,0.94921875,0.5,0.21875,0.09375,0.0,0.0,0.0
1695726262774,-0.16601562,0.109375,0.9433594,0.625,-0.34375,-0.15625,0.0,0.0,0.0
1695726262807,-0.17773438,0.109375,0.9345703,0.5,0.03125,0.03125,0.0,0.0,0.0
1695726262848,-0.16796875,0.11230469,0.9375,0.625,0.09375,0.03125,0.0,0.0,0.0
1695726262890,-0.16601562,0.125,0.9277344,0.90625,-0.03125,0.09375,0.0,0.0,0.0
1695726262947,-0.17285156,0.119140625,0.9423828,1.03125,-0.09375,-0.15625,0.0,0.0,0.0
1695726262968,-0.16796875,0.11621094,0.94433594,0.375,0.15625,0.03125,-45.4375,-14.6875,-89.4375
1695726263007,-0.16503906,0.11230469,0.94433594,0.125,0.15625,-0.03125,0.0,0.0,0.0
1695726263048,-0.16992188,0.11816406,0.9345703,0.375,0.21875,-0.03125,0.0,0.0,0.0
1695726263090,-0.17871094,0.12011719,0.9404297,0.375,0.21875,0.03125,0.0,0.0,0.0
1695726263126,-0.17773438,0.11425781,0.93652344,0.4375,0.09375,-0.03125,0.0,0.0,0.0
1695726263168,-0.16796875,0.11621094,0.9404297,0.3125,0.34375,-0.03125,0.0,0.0,0.0
1695726263207,-0.17382812,0.12207031,0.93359375,0.25,0.03125,-0.03125,0.0,0.0,0.0
1695726263250,-0.16015625,0.11425781,0.9326172,0.3125,0.15625,0.03125,0.0,0.0,0.0
1695726263288,-0.17382812,0.115234375,0.93066406,0.5625,-0.03125,0.03125,0.0,0.0,0.0
1695726263330,-0.1640625,0.11230469,0.9296875,0.5625,0.09375,-0.03125,0.0,0.0,0.0
1695726263374,-0.15917969,0.12109375,0.9482422,0.3125,0.21875,-0.09375,0.0,0.0,0.0
1695726263407,-0.17871094,0.119140625,0.94628906,0.0625,0.09375,0.03125,0.0,0.0,0.0
1695726263449,-0.15722656,0.119140625,0.9404297,0.1875,0.15625,0.03125,0.0,0.0,0.0
1695726263489,-0.171875,0.11621094,0.94433594,-0.0625,0.09375,0.09375,-45.0,-15.875,-88.5625
1695726263529,-0.17578125,0.11425781,0.93847656,0.3125,0.34375,0.03125,0.0,0.0,0.0
1695726263568,-0.16894531,0.12011719,0.953125,0.09375,-0.28125,-0.03125,0.0,0.0,0.0
1695726263607,-0.16894531,0.11035156,0.9404297,-0.40625,-0.09375,-0.03125,0.0,0.0,0.0
1695726263647,-0.16894531,0.12207031,0.9345703,-0.5,-0.03125,-0.09375,0.0,0.0,0.0
1695726263707,-0.16503906,0.119140625,0.9326172,-0.15625,-0.09375,-0.03125,0.0,0.0,0.0
1695726263727,-0.171875,0.111328125,0.93847656,0.03125,-0.03125,-0.15625,0.0,0.0,0.0
1695726263768,-0.16601562,0.12402344,0.921875,-0.6875,-0.15625,0.09375,0.0,0.0,0.0
1695726263827,-0.17285156,0.109375,0.94433594,-0.4375,0.21875,0.21875,0.0,0.0,0.0
1695726263847,-0.16503906,0.12011719,0.9433594,0.09375,-0.03125,-0.03125,0.0,0.0,0.0
1695726263887,-0.16503906,0.11328125,0.9326172,-0.21875,0.09375,-0.03125,0.0,0.0,0.0
1695726263928,-0.17089844,0.11816406,0.94433594,-0.4375,0.03125,-0.09375,0.0,0.0,0.0
1695726263968,-0.16308594,0.109375,0.9394531,-0.40625,0.15625,0.15625,-45.625,-16.9375,-87.8125
1695726264008,-0.17285156,0.12207031,0.9355469,0.03125,0.15625,-0.21875,0.0,0.0,0.0
1695726264048,-0.17480469,0.111328125,0.93847656,-0.28125,-0.03125,0.09375,0.0,0.0,0.0
1695726264088,-0.17578125,0.12011719,0.92871094,-0.5,-0.03125,-0.09375,0.0,0.0,0.0
1695726264131,-0.15917969,0.11621094,0.9404297,-0.34375,0.03125,-0.03125,0.0,0.0,0.0
1695726264167,-0.17578125,0.115234375,0.92871094,-0.40625,-0.03125,0.09375,0.0,0.0,0.0
1695726264207,-0.16992188,0.11425781,0.94921875,-0.8125,-0.09375,0.15625,0.0,0.0,0.0
1695726264248,-0.17382812,0.11035156,0.93652344,-0.5,0.03125,0.03125,0.0,0.0,0.0
1695726264288,-0.17773438,0.119140625,0.94140625,-0.40625,-0.09375,-0.03125,0.0,0.0,0.0
1695726264329,-0.16503906,0.11328125,0.9375,-0.6875,-0.03125,-0.03125,0.0,0.0,0.0
1695726264369,-0.17578125,0.111328125,0.9238281,-0.625,-0.09375,0.03125,0.0,0.0,0.0
1695726264407,-0.16308594,0.11230469,0.9375,-0.625,0.09375,-0.15625,0.0,0.0,0.0
1695726264470,-0.171875,0.107421875,0.9404297,-0.5625,-0.03125,-0.09375,0.0,0.0,0.0
1695726264489,-0.16601562,0.11035156,0.9404297,-0.34375,0.21875,-0.09375,-45.0,-16.625,-88.5625
1695726264528,-0.16015625,0.11425781,0.94140625,-0.03125,-0.34375,0.03125,0.0,0.0,0.0
1695726264568,-0.17089844,0.10253906,0.9423828,-0.6875,-0.15625,-0.03125,0.0,0.0,0.0
1695726264608,-0.16894531,0.119140625,0.9433594,-0.6875,-0.09375,-0.15625,0.0,0.0,0.0
1695726264649,-0.17480469,0.10449219,0.9238281,-0.6875,0.03125,-0.03125,0.0,0.0,0.0
1695726264688,-0.16992188,0.109375,0.94628906,-0.21875,0.15625,-0.03125,0.0,0.0,0.0
1695726264728,-0.16894531,0.10546875,0.9375,-0.40625,-0.09375,-0.03125,0.0,0.0,0.0
1695726264767,-0.16894531,0.11035156,0.9345703,-0.5,0.15625,-0.03125,0.0,0.0,0.0
1695726264808,-0.16015625,0.11035156,0.9511719,0.03125,-0.15625,-0.03125,0.0,0.0,0.0
1695726264850,-0.1640625,0.11816406,0.9423828,-0.21875,-0.15625,0.03125,0.0,0.0,0.0
1695726264889,-0.16503906,0.11425781,0.9472656,-0.28125,-0.03125,-0.03125,0.0,0.0,0.0
1695726264930,-0.17089844,0.109375,0.9326172,-0.40625,0.03125,-0.03125,0.0,0.0,0.0
1695726264968,-0.16503906,0.11425781,0.95214844,-0.28125,0.03125,0.09375,-44.6875,-17.0625,-88.375
1695726265007,-0.16894531,0.1171875,0.9345703,-0.15625,0.03125,0.03125,0.0,0.0,0.0
1695726265049,-0.16894531,0.11035156,0.9326172,-0.34375,-0.09375,-0.03125,0.0,0.0,0.0
1695726265089,-0.16992188,0.109375,0.9394531,-0.28125,-0.09375,-0.03125,0.0,0.0,0.0
1695726265132,-0.16503906,0.11035156,0.9453125,-0.09375,-0.03125,-0.09375,0.0,0.0,0.0
1695726265167,-0.17089844,0.109375,0.94140625,-0.21875,0.09375,0.03125,0.0,0.0,0.0
1695726265226,-0.16503906,0.111328125,0.9345703,-0.15625,0.09375,0.15625,0.0,0.0,0.0
1695726265248,-0.17089844,0.107421875,0.9423828,-0.15625,0.09375,0.09375,0.0,0.0,0.0
1695726265288,-0.17480469,0.111328125,0.93847656,-0.34375,-0.03125,-0.03125,0.0,0.0,0.0
1695726265328,-0.17773438,0.11035156,0.9345703,-0.28125,-0.09375,-0.03125,0.0,0.0,0.0
1695726265368,-0.17480469,0.10839844,0.9394531,-0.21875,0.21875,0.03125,0.0,0.0,0.0
1695726265409,-0.16308594,0.11816406,0.9394531,-0.28125,0.03125,-0.03125,0.0,0.0,0.0
1695726265447,-0.16894531,0.1171875,0.9355469,-0.5625,0.3125,-0.09375,0.0,0.0,0.0
1695726265488,-0.16601562,0.10839844,0.9482422,-0.5625,0.375,0.15625,-44.6875,-17.8125,-89.0
1695726265535,-0.17285156,0.10839844,0.94433594,0.09375,-0.21875,-0.09375,0.0,0.0,0.0
1695726265568,-0.16308594,0.11230469,0.93652344,-0.28125,-0.03125,0.09375,0.0,0.0,0.0
1695726265610,-0.17480469,0.111328125,0.9433594,-0.625,0.03125,-0.09375,0.0,0.0,0.0
1695726265650,-0.16796875,0.10644531,0.9394531,-0.34375,-0.09375,-0.09375,0.0,0.0,0.0
1695726265688,-0.16601562,0.103515625,0.9433594,-0.4375,-0.09375,-0.03125,0.0,0.0,0.0
1695726265730,-0.16210938,0.119140625,0.94433594,-0.40625,0.15625,0.03125,0.0,0.0,0.0
1695726265768,-0.16992188,0.10546875,0.9433594,-0.4375,0.09375,0.3125,0.0,0.0,0.0
1695726265809,-0.16992188,0.115234375,0.9326172,-0.21875,-0.09375,-0.03125,0.0,0.0,0.0
1695726265849,-0.171875,0.109375,0.94433594,-0.34375,-0.15625,-0.03125,0.0,0.0,0.0
1695726265886,-0.17480469,0.1015625,0.92871094,-0.21875,-0.03125,-0.09375,0.0,0.0,0.0
1695726265927,-0.16308594,0.10449219,0.9472656,-0.28125,0.03125,0.03125,0.0,0.0,0.0
1695726265988,-0.16894531,0.107421875,0.9404297,-0.09375,0.15625,0.09375,-44.6875,-15.6875,-89.75
1695726266009,-0.17285156,0.11328125,0.94140625,-0.21875,0.15625,0.03125,0.0,0.0,0.0
1695726266050,-0.17089844,0.111328125,0.9345703,-0.21875,0.09375,0.03125,0.0,0.0,0.0
1695726266087,-0.17285156,0.109375,0.953125,-0.09375,0.15625,-0.15625,0.0,0.0,0.0
1695726266128,-0.16894531,0.10839844,0.93847656,-0.09375,0.15625,0.03125,0.0,0.0,0.0
1695726266168,-0.16210938,0.10839844,0.9472656,-0.34375,-0.03125,-0.03125,0.0,0.0,0.0
1695726266207,-0.16894531,0.10449219,0.9404297,-0.21875,0.09375,-0.03125,0.0,0.0,0.0
1695726266248,-0.16796875,0.11230469,0.9394531,-0.03125,0.09375,-0.09375,0.0,0.0,0.0
1695726266308,-0.17089844,0.10449219,0.9394531,0.03125,0.03125,0.03125,0.0,0.0,0.0
1695726266328,-0.16601562,0.11328125,0.94921875,-0.15625,-0.03125,0.15625,0.0,0.0,0.0
1695726266368,-0.17089844,0.10546875,0.9404297,-0.21875,0.15625,0.03125,0.0,0.0,0.0
1695726266408,-0.17089844,0.111328125,0.9355469,0.21875,0.09375,-0.09375,0.0,0.0,0.0
1695726266447,-0.17089844,0.10058594,0.94140625,-0.03125,-0.03125,0.03125,0.0,0.0,0.0
1695726266487,-0.15722656,0.10644531,0.93652344,-0.21875,0.09375,-0.09375,-44.25,-16.625,-89.625
1695726266527,-0.16992188,0.11425781,0.9472656,-0.09375,0.09375,-0.09375,0.0,0.0,0.0
1695726266568,-0.17773438,0.10839844,0.9404297,-0.34375,0.21875,-0.03125,0.0,0.0,0.0
1695726266609,-0.17089844,0.115234375,0.9404297,0.03125,0.3125,0.15625,0.0,0.0,0.0
1695726266648,-0.16503906,0.10449219,0.9482422,0.46875,-0.21875,-0.09375,0.0,0.0,0.0
1695726266687,-0.17285156,0.11816406,0.9433594,-0.15625,-0.15625,0.03125,0.0,0.0,0.0
1695726266748,-0.17578125,0.11621094,0.9277344,-0.4375,-0.03125,-0.03125,0.0,0.0,0.0
1695726266769,-0.17675781,0.11035156,0.9326172,-0.28125,0.03125,-0.09375,0.0,0.0,0.0
1695726266808,-0.17773438,0.11816406,0.9453125,0.09375,0.09375,-0.15625,0.0,0.0,0.0
1695726266848,-0.16210938,0.1171875,0.9296875,-0.03125,-0.03125,-0.09375,0.0,0.0,0.0
1695726266887,-0.16992188,0.1171875,0.9472656,-0.28125,0.09375,0.09375,0.0,0.0,0.0
1695726266949,-0.1640625,0.11425781,0.92285156,-0.28125,0.03125,0.03125,0.0,0.0,0.0
1695726266969,-0.17675781,0.11816406,0.9375,-0.09375,-0.03125,-0.09375,-46.9375,-16.0,-87.9375
1695726267008,-0.17285156,0.111328125,0.95214844,-0.15625,0.03125,0.09375,0.0,0.0,0.0
1695726267048,-0.16894531,0.1171875,0.9355469,-0.28125,-0.03125,0.09375,0.0,0.0,0.0
1695726267087,-0.16796875,0.103515625,0.94140625,-0.03125,0.28125,0.03125,0.0,0.0,0.0
1695726267128,-0.17285156,0.12207031,0.9316406,-0.09375,0.21875,-0.03125,0.0,0.0,0.0
1695726267167,-0.171875,0.1171875,0.9404297,-0.21875,0.09375,0.03125,0.0,0.0,0.0
1695726267207,-0.171875,0.1171875,0.9453125,-0.21875,0.21875,-0.03125,0.0,0.0,0.0
1695726267248,-0.16601562,0.11425781,0.9404297,-0.09375,0.28125,-0.21875,0.0,0.0,0.0
1695726267287,-0.16992188,0.10839844,0.9296875,-0.40625,-0.09375,-0.03125,0.0,0.0,0.0
1695726267328,-0.16699219,0.111328125,0.9472656,-0.28125,0.21875,0.09375,0.0,0.0,0.0
1695726267368,-0.17382812,0.111328125,0.9404297,-0.09375,0.21875,0.03125,0.0,0.0,0.0
1695726267410,-0.17480469,0.10449219,0.9355469,-0.09375,0.28125,0.09375,0.0,0.0,0.0
1695726267447,-0.16894531,0.10546875,0.92578125,0.28125,0.15625,-0.03125,0.0,0.0,0.0
1695726267507,-0.17578125,0.11425781,0.9394531,-0.875,0.15625,-0.03125,-45.875,-17.5,-87.9375
1695726267536,-0.17480469,0.115234375,0.9472656,-0.15625,-0.09375,-0.03125,0.0,0.0,0.0
1695726267566,-0.16992188,0.111328125,0.9423828,-0.4375,0.21875,-0.15625,0.0,0.0,0.0
1695726267608,-0.16796875,0.11328125,0.9277344,-0.6875,-0.03125,0.03125,0.0,0.0,0.0
1695726267648,-0.17578125,0.115234375,0.94140625,0.15625,0.28125,-0.09375,0.0,0.0,0.0
1695726267687,-0.171875,0.109375,0.9316406,-0.15625,0.03125,0.03125,0.0,0.0,0.0
1695726267729,-0.16503906,0.1171875,0.9296875,-0.34375,-0.34375,-0.03125,0.0,0.0,0.0
1695726267769,-0.17675781,0.11328125,0.94140625,-0.5625,-0.21875,-0.28125,0.0,0.0,0.0
1695726267808,-0.171875,0.10253906,0.93847656,-0.34375,-0.09375,-0.21875,0.0,0.0,0.0
1695726267848,-0.16796875,0.1171875,0.9296875,-0.28125,-0.15625,0.09375,0.0,0.0,0.0
1695726267887,-0.1640625,0.1171875,0.9404297,-0.625,-0.21875,0.15625,0.0,0.0,0.0
1695726267931,-0.16210938,0.107421875,0.9482422,-0.34375,0.09375,-0.03125,0.0,0.0,0.0
1695726267967,-0.16113281,0.11328125,0.9423828,-0.21875,-0.21875,-0.09375,-45.125,-17.0625,-89.4375
1695726268010,-0.16113281,0.11425781,0.9453125,-0.5,-0.28125,0.03125,0.0,0.0,0.0
1695726268048,-0.17285156,0.11328125,0.9394531,-0.4375,-0.03125,-0.09375,0.0,0.0,0.0
1695726268088,-0.16796875,0.1171875,0.9296875,-0.34375,-0.03125,0.09375,0.0,0.0,0.0
1695726268128,-0.16992188,0.109375,0.94433594,-0.40625,-0.09375,0.09375,0.0,0.0,0.0
1695726268166,-0.16699219,0.109375,0.93847656,-0.28125,0.15625,0.03125,0.0,0.0,0.0
1695726268208,-0.17773438,0.11035156,0.9316406,-0.28125,-0.09375,-0.03125,0.0,0.0,0.0
1695726268267,-0.16992188,0.10644531,0.9345703,-0.28125,-0.09375,0.03125,0.0,0.0,0.0
1695726268286,-0.17382812,0.111328125,0.9453125,-0.34375,-0.21875,-0.03125,0.0,0.0,0.0
1695726268326,-0.17480469,0.115234375,0.92871094,-0.34375,0.03125,0.03125,0.0,0.0,0.0
1695726268368,-0.16796875,0.11035156,0.95214844,-0.34375,-0.03125,0.09375,0.0,0.0,0.0
1695726268411,-0.17285156,0.11035156,0.9404297,-0.40625,-0.09375,0.09375,0.0,0.0,0.0
1695726268450,-0.17285156,0.10644531,0.92578125,-0.09375,0.15625,-0.09375,0.0,0.0,0.0
1695726268492,-0.16699219,0.11035156,0.92871094,0.09375,-0.03125,-0.09375,-44.375,-17.0625,-89.75
1695726268547,-0.16699219,0.11621094,0.94433594,-0.21875,0.09375,0.03125,0.0,0.0,0.0
1695726268568,-0.17773438,0.11621094,0.9482422,-0.4375,0.03125,0.03125,0.0,0.0,0.0
1695726268609,-0.171875,0.10644531,0.93652344,-0.625,0.375,0.03125,0.0,0.0,0.0
1695726268646,-0.16503906,0.111328125,0.92871094,-0.4375,-0.09375,0.03125,0.0,0.0,0.0
1695726268686,-0.16308594,0.11621094,0.9482422,-0.09375,0.21875,-0.03125,0.0,0.0,0.0
1695726268727,-0.1640625,0.10839844,0.94628906,-0.09375,-0.28125,-0.15625,0.0,0.0,0.0
1695726268768,-0.16699219,0.11425781,0.9326172,-0.03125,-0.28125,-0.09375,0.0,0.0,0.0
1695726268808,-0.17285156,0.109375,0.9296875,-0.21875,-0.09375,-0.15625,0.0,0.0,0.0
1695726268848,-0.16699219,0.111328125,0.9560547,-0.40625,-0.15625,-0.15625,0.0,0.0,0.0
1695726268886,-0.171875,0.11035156,0.9423828,0.03125,0.15625,-0.21875,0.0,0.0,0.0
1695726268927,-0.17382812,0.11230469,0.9355469,-0.28125,-0.15625,0.15625,0.0,0.0,0.0
1695726268967,-0.16894531,0.115234375,0.9375,-0.34375,-0.09375,0.03125,-45.0,-16.9375,-88.875
1695726269028,-0.171875,0.115234375,0.953125,-0.09375,-0.21875,-0.09375,0.0,0.0,0.0
1695726269047,-0.17675781,0.11035156,0.9345703,-0.21875,-0.03125,-0.03125,0.0,0.0,0.0
1695726269088,-0.16796875,0.10644531,0.93652344,-0.28125,0.09375,0.03125,0.0,0.0,0.0
1695726269128,-0.16796875,0.10546875,0.9423828,-0.15625,-0.03125,0.03125,0.0,0.0,0.0
1695726269168,-0.16992188,0.11230469,0.9423828,-0.09375,-0.03125,0.09375,0.0,0.0,0.0
1695726269208,-0.16796875,0.109375,0.9375,-0.15625,0.03125,0.03125,0.0,0.0,0.0
1695726269248,-0.16503906,0.10644531,0.94921875,-0.28125,0.09375,-0.03125,0.0,0.0,0.0
1695726269287,-0.16992188,0.109375,0.9453125,-0.21875,0.09375,-0.03125,0.0,0.0,0.0
1695726269328,-0.17089844,0.12011719,0.94628906,-0.28125,-0.03125,0.03125,0.0,0.0,0.0
1695726269392,-0.16796875,0.11425781,0.9472656,-0.40625,-0.03125,0.03125,0.0,0.0,0.0
1695726269409,-0.16601562,0.10839844,0.9404297,-0.15625,0.09375,-0.03125,0.0,0.0,0.0
1695726269448,-0.16308594,0.11230469,0.9472656,-0.21875,0.03125,-0.15625,0.0,0.0,0.0
1695726269489,-0.171875,0.11425781,0.9482422,-0.34375,0.03125,-0.03125,-44.25,-17.375,-89.125
1695726269527,-0.16601562,0.107421875,0.94140625,-0.34375,0.15625,0.03125,0.0,0.0,0.0
1695726269567,-0.17089844,0.10449219,0.94140625,-0.40625,0.15625,-0.03125,0.0,0.0,0.0
1695726269608,-0.16015625,0.12011719,0.9375,-0.28125,-0.09375,0.09375,0.0,0.0,0.0
1695726269649,-0.17089844,0.11230469,0.9394531,-0.4375,-0.03125,0.15625,0.0,0.0,0.0
1695726269687,-0.171875,0.125,0.9296875,-0.5,0.09375,0.09375,0.0,0.0,0.0
1695726269728,-0.17089844,0.11425781,0.9326172,-0.4375,0.09375,-0.21875,0.0,0.0,0.0
1695726269788,-0.16699219,0.1171875,0.9453125,-0.40625,-0.09375,0.09375,0.0,0.0,0.0
1695726269808,-0.1640625,0.109375,0.9482422,-0.09375,0.03125,-0.09375,0.0,0.0,0.0
1695726269848,-0.16503906,0.10058594,0.9375,-0.03125,-0.09375,0.03125,0.0,0.0,0.0
1695726269888,-0.16503906,0.11230469,0.94140625,-0.21875,-0.15625,0.03125,0.0,0.0,0.0
1695726269928,-0.16601562,0.11425781,0.93359375,-0.15625,-0.09375,-0.03125,0.0,0.0,0.0
1695726269968,-0.17773438,0.11230469,0.94140625,-0.34375,0.09375,0.15625,-44.5625,-16.625,-88.5625
1695726270011,-0.16992188,0.115234375,0.9433594,0.59375,0.03125,-0.03125,0.0,0.0,0.0
1695726270048,-0.16992188,0.119140625,0.94140625,0.46875,-0.21875,-0.34375,0.0,0.0,0.0
1695726270087,-0.171875,0.109375,0.9453125,-0.21875,0.03125,-0.21875,0.0,0.0,0.0
1695726270130,-0.17285156,0.115234375,0.9394531,-0.03125,-0.15625,-0.03125,0.0,0.0,0.0
1695726270168,-0.17089844,0.10839844,0.95214844,0.03125,0.03125,0.15625,0.0,0.0,0.0
1695726270208,-0.16210938,0.11035156,0.9345703,0.03125,0.03125,-0.03125,0.0,0.0,0.0
1695726270250,-0.16308594,0.115234375,0.93652344,-0.21875,0.03125,0.21875,0.0,0.0,0.0
1695726270289,-0.17675781,0.10839844,0.9394531,-0.34375,0.28125,0.09375,0.0,0.0,0.0
1695726270329,-0.1640625,0.107421875,0.9482422,0.15625,0.15625,-0.03125,0.0,0.0,0.0
1695726270369,-0.16894531,0.115234375,0.94921875,0.34375,0.15625,0.09375,0.0,0.0,0.0
1695726270412,-0.16503906,0.12207031,0.94628906,-0.09375,0.21875,-0.03125,0.0,0.0,0.0
1695726270448,-0.16015625,0.12207031,0.9423828,-0.03125,0.21875,-0.09375,0.0,0.0,0.0
1695726270491,-0.17578125,0.103515625,0.9472656,0.09375,0.15625,-0.15625,-45.3125,-17.375,-88.25
1695726270547,-0.16210938,0.115234375,0.9501953,-0.21875,0.15625,-0.03125,0.0,0.0,0.0
1695726270566,-0.16894531,0.11230469,0.93847656,-0.28125,0.21875,0.15625,0.0,0.0,0.0
1695726270608,-0.17089844,0.111328125,0.94140625,-0.15625,0.28125,0.21875,0.0,0.0,0.0
1695726270648,-0.16894531,0.111328125,0.93847656,-0.21875,0.28125,0.09375,0.0,0.0,0.0
1695726270687,-0.17285156,0.1015625,0.94140625,-0.21875,0.09375,0.09375,0.0,0.0,0.0
1695726270731,-0.16992188,0.11230469,0.9404297,-0.21875,0.15625,-0.09375,0.0,0.0,0.0
1695726270767,-0.17578125,0.119140625,0.9589844,-0.15625,0.15625,-0.03125,0.0,0.0,0.0
1695726270810,-0.16308594,0.11035156,0.9433594,-0.4375,0.03125,0.03125,0.0,0.0,0.0
1695726270849,-0.16796875,0.12207031,0.94433594,-0.5,0.15625,0.03125,0.0,0.0,0.0
1695726270893,-0.1640625,0.11621094,0.9433594,-0.15625,-0.15625,-0.03125,0.0,0.0,0.0
1695726270929,-0.15820312,0.11035156,0.9423828,0.15625,0.28125,0.09375,0.0,0.0,0.0
1695726270967,-0.16210938,0.111328125,0.9345703,-0.03125,-0.09375,0.15625,-45.4375,-15.25,-88.6875
1695726271009,-0.16699219,0.111328125,0.9433594,-0.4375,-0.15625,0.03125,0.0,0.0,0.0
1695726271047,-0.15820312,0.1171875,0.9375,-0.40625,-0.09375,0.03125,0.0,0.0,0.0
1695726271088,-0.17480469,0.10546875,0.94433594,-0.34375,0.03125,-0.09375,0.0,0.0,0.0
1695726271128,-0.16503906,0.10546875,0.93652344,-0.09375,-0.03125,-0.09375,0.0,0.0,0.0
1695726271167,-0.16894531,0.1171875,0.9277344,-0.5625,-0.09375,0.03125,0.0,0.0,0.0
1695726271210,-0.171875,0.119140625,0.9404297,-0.28125,0.15625,0.09375,0.0,0.0,0.0
1695726271247,-0.16308594,0.109375,0.9423828,-0.28125,-0.09375,0.09375,0.0,0.0,0.0
1695726271308,-0.16503906,0.109375,0.94433594,-0.5,-0.09375,0.03125,0.0,0.0,0.0
1695726271328,-0.16503906,0.119140625,0.9453125,-0.15625,0.28125,-0.09375,0.0,0.0,0.0
1695726271368,-0.16796875,0.111328125,0.9423828,-0.15625,0.09375,0.15625,0.0,0.0,0.0
1695726271408,-0.171875,0.10546875,0.93066406,-0.40625,0.21875,0.15625,0.0,0.0,0.0
1695726271447,-0.16210938,0.12011719,0.9423828,-0.4375,0.15625,0.03125,0.0,0.0,0.0
1695726271488,-0.17382812,0.11328125,0.94433594,-0.4375,0.03125,0.03125,-45.4375,-17.5,-89.4375
1695726271528,-0.171875,0.115234375,0.93359375,-0.75,0.03125,0.15625,0.0,0.0,0.0
1695726271567,-0.17089844,0.1015625,0.93847656,-0.625,0.03125,0.03125,0.0,0.0,0.0
1695726271607,-0.171875,0.111328125,0.9394531,-0.5,-0.09375,0.09375,0.0,0.0,0.0
1695726271648,-0.16796875,0.11035156,0.9326172,-0.4375,-0.09375,0.03125,0.0,0.0,0.0
1695726271688,-0.17285156,0.11328125,0.9375,-0.5625,-0.09375,0.09375,0.0,0.0,0.0
1695726271727,-0.17089844,0.107421875,0.9433594,-0.5,-0.09375,0.03125,0.0,0.0,0.0
1695726271767,-0.16210938,0.111328125,0.94140625,-0.28125,0.03125,-0.03125,0.0,0.0,0.0
1695726271808,-0.16796875,0.109375,0.9267578,-0.40625,-0.03125,0.09375,0.0,0.0,0.0
1695726271847,-0.17675781,0.103515625,0.93847656,-0.4375,0.03125,0.09375,0.0,0.0,0.0
1695726271888,-0.171875,0.10546875,0.93652344,-0.5,0.28125,-0.09375,0.0,0.0,0.0
1695726271928,-0.17089844,0.09863281,0.9326172,-0.6875,-0.09375,0.03125,0.0,0.0,0.0
1695726271966,-0.17773438,0.115234375,0.94140625,-0.21875,0.15625,-0.03125,-44.375,-18.25,-89.0
1695726272007,-0.16601562,0.11035156,0.9355469,-0.03125,-0.21875,-0.09375,0.0,0.0,0.0
1695726272069,-0.16894531,0.10644531,0.92578125,-0.40625,-0.03125,-0.03125,0.0,0.0,0.0
1695726272091,-0.16992188,0.10839844,0.93847656,-0.40625,0.21875,0.03125,0.0,0.0,0.0
1695726272127,-0.16992188,0.11035156,0.9238281,-0.4375,-0.09375,-0.03125,0.0,0.0,0.0
1695726272167,-0.15917969,0.115234375,0.93359375,-0.03125,0.09375,-0.15625,0.0,0.0,0.0
1695726272208,-0.16992188,0.11621094,0.9394531,0.03125,-0.15625,0.03125,0.0,0.0,0.0
1695726272248,-0.16992188,0.10546875,0.92578125,-0.03125,0.15625,0.03125,0.0,0.0,0.0
1695726272289,-0.17578125,0.11035156,0.9511719,-0.09375,-0.15625,-0.03125,0.0,0.0,0.0
1695726272327,-0.17578125,0.10644531,0.9316406,-0.21875,-0.21875,0.15625,0.0,0.0,0.0
1695726272389,-0.18066406,0.11425781,0.9501953,-0.28125,0.03125,0.03125,0.0,0.0,0.0
1695726272407,-0.17675781,0.10449219,0.9482422,-0.21875,-0.03125,0.09375,0.0,0.0,0.0
1695726272446,-0.16992188,0.10546875,0.9277344,-0.34375,0.03125,-0.03125,0.0,0.0,0.0
1695726272488,-0.16503906,0.10644531,0.93359375,-0.03125,0.09375,-0.03125,-45.4375,-16.75,-88.375
1695726272528,-0.16601562,0.111328125,0.9433594,-0.15625,0.09375,0.03125,0.0,0.0,0.0
1695726272567,-0.17382812,0.11230469,0.9433594,-0.28125,0.03125,-0.03125,0.0,0.0,0.0
1695726272608,-0.17089844,0.10449219,0.94433594,-0.03125,0.15625,-0.09375,0.0,0.0,0.0
1695726272647,-0.16503906,0.1015625,0.9482422,-0.09375,0.15625,0.03125,0.0,0.0,0.0
1695726272708,-0.16503906,0.109375,0.9501953,-0.15625,0.03125,0.03125,0.0,0.0,0.0
1695726272730,-0.17871094,0.109375,0.9345703,-0.21875,0.28125,0.15625,0.0,0.0,0.0
1695726272768,-0.16894531,0.11035156,0.9375,-0.28125,0.03125,0.09375,0.0,0.0,0.0
1695726272829,-0.16210938,0.107421875,0.94433594,-0.15625,0.09375,-0.03125,0.0,0.0,0.0
1695726272847,-0.15917969,0.103515625,0.9482422,-0.28125,-0.03125,-0.03125,0.0,0.0,0.0
1695726272888,-0.16699219,0.10546875,0.93847656,-0.4375,0.15625,0.03125,0.0,0.0,0.0
1695726272928,-0.16992188,0.111328125,0.95214844,-0.28125,0.03125,0.03125,0.0,0.0,0.0
1695726272967,-0.17089844,0.107421875,0.9394531,-0.21875,0.375,-0.09375,-44.25,-16.1875,-88.5625
1695726273021,-0.171875,0.109375,0.9423828,-0.5625,-0.15625,0.28125,0.0,0.0,0.0
1695726273047,-0.16601562,0.107421875,0.9482422,-0.09375,0.03125,-0.09375,0.0,0.0,0.0
1695726273088,-0.1640625,0.111328125,0.93652344,0.21875,-0.28125,-0.03125,0.0,0.0,0.0
1695726273135,-0.171875,0.10546875,0.9433594,-0.8125,-0.96875,-0.15625,0.0,0.0,0.0
1695726273168,-0.17382812,0.11816406,0.9404297,-0.09375,-0.28125,-0.09375,0.0,0.0,0.0
1695726273207,-0.16894531,0.107421875,0.9267578,-0.28125,0.21875,-0.21875,0.0,0.0,0.0
1695726273268,-0.16796875,0.11621094,0.9501953,0.28125,0.15625,-0.15625,0.0,0.0,0.0
1695726273291,-0.16894531,0.10644531,0.9345703,0.03125,-0.15625,0.15625,0.0,0.0,0.0
1695726273328,-0.16113281,0.10644531,0.94140625,0.21875,0.3125,0.03125,0.0,0.0,0.0
1695726273368,-0.171875,0.099609375,0.94921875,0.34375,-0.28125,-0.15625,0.0,0.0,0.0
1695726273408,-0.171875,0.1015625,0.93652344,-0.09375,0.03125,0.03125,0.0,0.0,0.0
1695726273448,-0.1640625,0.10644531,0.93652344,0.15625,0.28125,0.03125,0.0,0.0,0.0
1695726273492,-0.17382812,0.10839844,0.94433594,0.15625,0.09375,0.03125,-44.5625,-16.625,-88.875
1695726273529,-0.16601562,0.11035156,0.9316406,0.15625,0.28125,-0.03125,0.0,0.0,0.0
1695726273610,-0.16796875,0.111328125,0.93847656,-0.03125,0.09375,0.09375,0.0,0.0,0.0
1695726273612,-0.171875,0.10449219,0.9345703,0.09375,0.15625,-0.09375,0.0,0.0,0.0
1695726273648,-0.18164062,0.11230469,0.9423828,0.28125,0.15625,0.09375,0.0,0.0,0.0
1695726273697,-0.16796875,0.11425781,0.9375,0.21875,0.03125,0.03125,0.0,0.0,0.0
1695726273727,-0.16894531,0.12109375,0.9375,0.15625,0.15625,0.03125,0.0,0.0,0.0
1695726273768,-0.16113281,0.11230469,0.9423828,-0.03125,0.09375,-0.03125,0.0,0.0,0.0
1695726273812,-0.16894531,0.10839844,0.9248047,0.09375,0.15625,-0.03125,0.0,0.0,0.0
1695726273848,-0.17480469,0.109375,0.93847656,-0.09375,0.28125,0.03125,0.0,0.0,0.0
1695726273908,-0.16601562,0.11035156,0.94628906,0.0,0.1875,0.0,0.0,0.0,0.0
1695726273927,-0.17675781,0.11816406,0.94433594,-0.09375,0.09375,0.0,0.0,0.0,0.0
1695726273967,-0.17089844,0.10839844,0.9472656,-0.15625,0.15625,0.0,0.0,0.0,0.0
1695726274008,-0.16210938,0.115234375,0.9511719,-0.15625,0.09375,0.0,-45.4375,-17.8125,-88.6875
1695726274047,-0.16894531,0.11425781,0.94140625,-0.53125,0.1875,0.1875,0.0,0.0,0.0
1695726274087,-0.17285156,0.107421875,0.9501953,0.3125,0.25,0.0625,0.0,0.0,0.0
1695726274128,-0.17480469,0.103515625,0.9501953,0.25,-0.21875,-0.09375,0.0,0.0,0.0
1695726274188,-0.16503906,0.10058594,0.9316406,-0.09375,0.03125,-0.09375,0.0,0.0,0.0
1695726274209,-0.17480469,0.109375,0.9433594,-0.0625,-0.28125,-0.15625,0.0,0.0,0.0
1695726274248,-0.16503906,0.10546875,0.9404297,-0.09375,0.09375,-0.09375,0.0,0.0,0.0
1695726274288,-0.16601562,0.107421875,0.9375,0.1875,-0.21875,-0.09375,0.0,0.0,0.0
1695726274347,-0.16503906,0.12402344,0.9375,-0.78125,-0.46875,0.25,0.0,0.0,0.0
1695726274367,-0.16894531,0.10839844,0.9277344,-0.15625,0.375,0.125,0.0,0.0,0.0
1695726274408,-0.16308594,0.10449219,0.93652344,-0.0625,-0.03125,0.125,0.0,0.0,0.0
1695726274468,-0.16992188,0.11425781,0.9433594,-0.46875,-0.09375,0.0,0.0,0.0,0.0
1695726274488,-0.17089844,0.11425781,0.9423828,-0.34375,0.09375,-0.15625,-44.375,-17.8125,-90.0625
1695726274528,-0.17773438,0.1171875,0.9248047,-0.40625,0.3125,-0.03125,0.0,0.0,0.0
1695726274569,-0.17285156,0.11035156,0.9423828,-0.28125,0.375,-0.03125,0.0,0.0,0.0
1695726274608,-0.17089844,0.115234375,0.9394531,-0.21875,0.25,0.0,0.0,0.0,0.0
1695726274648,-0.17089844,0.11035156,0.9267578,-0.40625,0.15625,0.0,0.0,0.0,0.0
1695726274689,-0.16894531,0.11035156,0.95214844,-0.21875,0.09375,-0.09375,0.0,0.0,0.0
1695726274727,-0.1640625,0.10058594,0.9267578,-0.46875,0.1875,-0.09375,0.0,0.0,0.0
1695726274767,-0.16699219,0.11035156,0.9316406,-0.53125,0.1875,-0.03125,0.0,0.0,0.0
1695726274808,-0.171875,0.11425781,0.9423828,-0.46875,0.15625,-0.09375,0.0,0.0,0.0
1695726274848,-0.16796875,0.11328125,0.93847656,-0.71875,0.15625,-0.03125,0.0,0.0,0.0
1695726274888,-0.17382812,0.11035156,0.92285156,-0.96875,-0.28125,0.125,0.0,0.0,0.0
1695726274947,-0.17480469,0.10253906,0.9433594,-0.78125,0.1875,-0.03125,0.0,0.0,0.0
1695726274967,-0.16992188,0.109375,0.93847656,-0.65625,0.15625,-0.03125,0.0,0.0,0.0
1695726275028,-0.16601562,0.109375,0.9326172,-0.28125,-0.28125,0.125,-45.875,-17.8125,-89.0
1695726275048,-0.17675781,0.10546875,0.9453125,0.0625,0.15625,0.0,0.0,0.0,0.0
1695726275107,-0.17089844,0.107421875,0.95410156,0.125,-0.34375,-0.09375,0.0,0.0,0.0
1695726275128,-0.16796875,0.11035156,0.9345703,-0.28125,-0.28125,-0.15625,0.0,0.0,0.0
1695726275168,-0.16894531,0.11425781,0.9345703,-0.65625,-0.09375,-0.21875,0.0,0.0,0.0
1695726275209,-0.1796875,0.10644531,0.9453125,-0.0625,-0.34375,-0.09375,0.0,0.0,0.0
1695726275248,-0.16796875,0.11621094,0.9375,-0.15625,0.03125,0.0,0.0,0.0,0.0
1695726275309,-0.17285156,0.11425781,0.9580078,-0.28125,-0.40625,0.0625,0.0,0.0,0.0
1695726275329,-0.16992188,0.111328125,0.9472656,-0.09375,-0.03125,0.0,0.0,0.0,0.0
1695726275388,-0.16210938,0.11035156,0.94140625,-0.15625,-0.40625,0.0,0.0,0.0,0.0
1695726275411,-0.17382812,0.103515625,0.94433594,-0.21875,-0.28125,-0.03125,0.0,0.0,0.0
1695726275447,-0.16992188,0.1015625,0.94140625,-0.0625,-0.15625,-0.03125,0.0,0.0,0.0
1695726275489,-0.16992188,0.10546875,0.93847656,-0.0625,0.03125,0.0,-44.6875,-17.0625,-89.75
1695726275528,-0.16894531,0.109375,0.9316406,-0.34375,-0.03125,0.0625,0.0,0.0,0.0
1695726275569,-0.17480469,0.10058594,0.9296875,-0.21875,-0.15625,0.0,0.0,0.0,0.0
1695726275613,-0.17382812,0.1015625,0.9326172,-0.15625,0.03125,-0.03125,0.0,0.0,0.0
1695726275668,-0.15917969,0.10253906,0.93359375,-0.28125,-0.09375,-0.03125,0.0,0.0,0.0
1695726275687,-0.17675781,0.107421875,0.94433594,-0.15625,-0.09375,-0.09375,0.0,0.0,0.0
1695726275732,-0.16796875,0.10449219,0.94140625,-0.21875,-0.03125,-0.21875,0.0,0.0,0.0
1695726275769,-0.17285156,0.10546875,0.9404297,-0.21875,0.09375,0.0,0.0,0.0,0.0
1695726275809,-0.16601562,0.109375,0.94628906,-0.15625,0.09375,0.0625,0.0,0.0,0.0
1695726275868,-0.17773438,0.103515625,0.953125,0.0625,0.03125,0.0,0.0,0.0,0.0
1695726275889,-0.17578125,0.1015625,0.9355469,-0.28125,-0.15625,0.125,0.0,0.0,0.0
1695726275948,-0.17480469,0.10449219,0.9355469,-0.34375,0.03125,-0.09375,0.0,0.0,0.0
1695726275968,-0.16796875,0.103515625,0.93847656,-0.46875,0.03125,-0.03125,0.0,0.0,0.0
1695726276008,-0.16113281,0.10546875,0.93652344,0.0625,0.09375,-0.09375,-45.0,-17.6875,-87.1875
1695726276049,-0.16503906,0.10546875,0.9394531,0.375,-0.34375,-0.15625,0.0,0.0,0.0
1695726276089,-0.16308594,0.10449219,0.9472656,-0.09375,-0.21875,0.0625,0.0,0.0,0.0
1695726276128,-0.17773438,0.10449219,0.9296875,-0.34375,0.03125,-0.15625,0.0,0.0,0.0
1695726276168,-0.17675781,0.10449219,0.9482422,-0.28125,-0.09375,-0.03125,0.0,0.0,0.0
1695726276208,-0.16796875,0.1015625,0.9326172,0.0625,-0.28125,-0.15625,0.0,0.0,0.0
1695726276247,-0.16503906,0.109375,0.9355469,-0.21875,0.03125,-0.03125,0.0,0.0,0.0
1695726276289,-0.16210938,0.10058594,0.9345703,-0.40625,-0.09375,0.0625,0.0,0.0,0.0
1695726276327,-0.16601562,0.10546875,0.93359375,-0.0625,-0.28125,-0.15625,0.0,0.0,0.0
1695726276368,-0.16894531,0.10449219,0.94140625,-0.0625,-0.28125,-0.03125,0.0,0.0,0.0
1695726276410,-0.17382812,0.109375,0.93652344,-0.21875,-0.15625,-0.09375,0.0,0.0,0.0
1695726276448,-0.1640625,0.10644531,0.9394531,-0.09375,-0.03125,0.0625,0.0,0.0,0.0
1695726276487,-0.17382812,0.103515625,0.92871094,-0.09375,0.03125,0.0625,-45.4375,-18.25,-88.6875
1695726276533,-0.17285156,0.10644531,0.9316406,0.0,0.03125,-0.03125,0.0,0.0,0.0
1695726276571,-0.17773438,0.111328125,0.9453125,-0.09375,-0.09375,0.0,0.0,0.0,0.0
1695726276627,-0.171875,0.103515625,0.95214844,-0.15625,0.03125,-0.03125,0.0,0.0,0.0
1695726276647,-0.171875,0.107421875,0.9345703,-0.15625,0.09375,-0.03125,0.0,0.0,0.0
1695726276688,-0.17285156,0.09863281,0.9394531,0.0,-0.09375,-0.15625,0.0,0.0,0.0
1695726276728,-0.17285156,0.103515625,0.94628906,-0.09375,-0.09375,-0.09375,0.0,0.0,0.0
1695726276769,-0.16894531,0.11035156,0.95410156,-0.15625,0.15625,-0.03125,0.0,0.0,0.0
1695726276807,-0.17089844,0.10839844,0.9404297,-0.15625,-0.09375,0.0625,0.0,0.0,0.0
1695726276848,-0.17578125,0.10546875,0.9501953,0.0,0.03125,0.0,0.0,0.0,0.0
1695726276888,-0.17089844,0.10058594,0.9326172,-0.15625,-0.03125,-0.09375,0.0,0.0,0.0
1695726276927,-0.17285156,0.10253906,0.9453125,-0.09375,-0.03125,-0.03125,0.0,0.0,0.0
1695726276970,-0.16308594,0.103515625,0.9423828,0.0,-0.15625,0.0,0.0,0.0,0.0
1695726277007,-0.17089844,0.099609375,0.9482422,0.25,-0.03125,-0.15625,-45.625,-16.9375,-87.8125
1695726277047,-0.18164062,0.107421875,0.94433594,-0.21875,-0.09375,0.0,0.0,0.0,0.0
1695726277087,-0.17480469,0.103515625,0.9296875,-0.15625,0.3125,-0.03125,0.0,0.0,0.0
1695726277149,-0.16113281,0.103515625,0.94921875,-0.15625,0.03125,0.0625,0.0,0.0,0.0
1695726277168,-0.16992188,0.103515625,0.93066406,0.125,0.1875,-0.03125,0.0,0.0,0.0
1695726277208,-0.17480469,0.111328125,0.94140625,0.375,-0.34375,-0.03125,0.0,0.0,0.0
1695726277250,-0.16503906,0.10546875,0.9511719,0.25,-0.28125,-0.03125,0.0,0.0,0.0
1695726277288,-0.16992188,0.11425781,0.9277344,0.1875,-0.21875,-0.15625,0.0,0.0,0.0
1695726277328,-0.17382812,0.10449219,0.95214844,0.0,0.03125,-0.21875,0.0,0.0,0.0
1695726277389,-0.18164062,0.107421875,0.9472656,0.25,-0.09375,-0.15625,0.0,0.0,0.0
1695726277431,-0.16503906,0.111328125,0.9355469,0.1875,0.1875,0.0625,0.0,0.0,0.0
1695726277447,-0.171875,0.11035156,0.9355469,-0.15625,0.03125,0.1875,0.0,0.0,0.0
1695726277488,-0.17285156,0.11035156,0.94628906,-0.0625,0.03125,-0.03125,-44.6875,-17.0625,-87.9375
1695726277528,-0.17382812,0.103515625,0.94921875,0.0,-0.03125,0.0,0.0,0.0,0.0
1695726277569,-0.17285156,0.10058594,0.93652344,0.0625,0.09375,-0.09375,0.0,0.0,0.0
1695726277607,-0.17480469,0.10253906,0.9394531,0.0,0.15625,0.0625,0.0,0.0,0.0
1695726277647,-0.17480469,0.107421875,0.94628906,0.25,0.03125,0.0625,0.0,0.0,0.0
1695726277689,-0.17675781,0.09765625,0.93359375,0.4375,-0.15625,-0.15625,0.0,0.0,0.0
1695726277728,-0.17675781,0.10644531,0.9423828,0.25,-0.15625,-0.15625,0.0,0.0,0.0
1695726277786,-0.17578125,0.11328125,0.9316406,0.0625,-0.21875,-0.15625,0.0,0.0,0.0
1695726277806,-0.1640625,0.10253906,0.93847656,0.1875,-0.15625,0.125,0.0,0.0,0.0
1695726277852,-0.17285156,0.107421875,0.9375,0.0,-0.03125,0.0625,0.0,0.0,0.0
1695726277887,-0.16894531,0.111328125,0.9453125,0.0625,-0.03125,0.125,0.0,0.0,0.0
1695726277927,-0.16992188,0.10839844,0.9501953,0.0625,-0.09375,-0.03125,0.0,0.0,0.0
1695726277969,-0.16894531,0.10058594,0.95214844,0.0,-0.03125,0.0,0.0,0.0,0.0
1695726278007,-0.17285156,0.107421875,0.9482422,-0.15625,0.15625,0.0,-45.625,-17.6875,-88.25
1695726278071,-0.16796875,0.10644531,0.93652344,0.0625,0.03125,0.0625,0.0,0.0,0.0
1695726278091,-0.16992188,0.11425781,0.9423828,0.0625,0.09375,-0.03125,0.0,0.0,0.0
1695726278148,-0.16601562,0.111328125,0.93066406,-0.09375,0.09375,0.0,0.0,0.0,0.0
1695726278169,-0.17089844,0.12011719,0.9404297,-0.34375,0.15625,0.0625,0.0,0.0,0.0
1695726278208,-0.17285156,0.11621094,0.94921875,-0.15625,0.03125,0.0625,0.0,0.0,0.0
1695726278267,-0.17578125,0.099609375,0.9394531,0.1875,0.09375,0.0,0.0,0.0,0.0
1695726278290,-0.17675781,0.1171875,0.9267578,0.25,-0.21875,0.0,0.0,0.0,0.0
1695726278348,-0.16699219,0.10644531,0.92285156,-0.28125,-0.34375,-0.03125,0.0,0.0,0.0
1695726278372,-0.17089844,0.111328125,0.9394531,-0.34375,-0.15625,-0.15625,0.0,0.0,0.0
1695726278408,-0.1796875,0.11328125,0.93652344,-0.28125,-0.15625,-0.03125,0.0,0.0,0.0
1695726278447,-0.16894531,0.11035156,0.9472656,-0.0625,-0.03125,-0.09375,0.0,0.0,0.0
1695726278508,-0.1640625,0.10644531,0.9394531,-0.21875,-0.28125,0.0625,-46.375,-15.875,-88.25
1695726278527,-0.17285156,0.10839844,0.9394531,-0.59375,0.3125,0.1875,0.0,0.0,0.0
1695726278567,-0.16210938,0.107421875,0.9453125,-0.40625,-0.21875,0.1875,0.0,0.0,0.0
1695726278610,-0.17578125,0.10839844,0.9453125,-0.34375,-0.09375,0.0625,0.0,0.0,0.0
1695726278652,-0.17382812,0.10839844,0.9355469,-0.28125,0.09375,0.0,0.0,0.0,0.0
1695726278730,-0.16503906,0.10546875,0.94433594,-0.53125,-0.03125,0.0625,0.0,0.0,0.0
1695726278733,-0.17382812,0.10839844,0.9433594,-0.46875,0.15625,-0.03125,0.0,0.0,0.0
1695726278772,-0.171875,0.10644531,0.9345703,-0.34375,-0.09375,-0.03125,0.0,0.0,0.0
1695726278818,-0.17675781,0.11230469,0.9326172,-0.40625,-0.15625,0.0,0.0,0.0,0.0
1695726278849,-0.17675781,0.11230469,0.9482422,-0.65625,-0.09375,-0.03125,0.0,0.0,0.0
1695726278907,-0.17382812,0.10449219,0.9326172,-0.28125,-0.21875,0.125,0.0,0.0,0.0
1695726278928,-0.16503906,0.10839844,0.9394531,-0.21875,-0.03125,0.125,0.0,0.0,0.0
1695726278987,-0.17285156,0.111328125,0.9423828,-0.65625,-0.15625,0.125,0.0,0.0,0.0
1695726279007,-0.16894531,0.103515625,0.9326172,-0.40625,-0.15625,-0.03125,-46.1875,-17.5,-89.4375
1695726279053,-0.16992188,0.10546875,0.9453125,-0.34375,-0.21875,0.0,0.0,0.0,0.0
1695726279094,-0.1796875,0.115234375,0.93359375,-0.34375,-0.03125,-0.09375,0.0,0.0,0.0
1695726279131,-0.17480469,0.1015625,0.9482422,-0.40625,0.03125,0.0625,0.0,0.0,0.0
1695726279166,-0.16308594,0.099609375,0.93359375,-0.59375,0.1875,-0.09375,0.0,0.0,0.0
1695726279207,-0.16113281,0.103515625,0.9453125,-0.40625,-0.09375,-0.03125,0.0,0.0,0.0
1695726279289,-0.16992188,0.10644531,0.9453125,-0.15625,0.09375,-0.03125,0.0,0.0,0.0
1695726279291,-0.171875,0.1015625,0.93359375,0.0,-0.40625,-0.03125,0.0,0.0,0.0
1695726279328,-0.16601562,0.11035156,0.94433594,-0.09375,-0.28125,-0.09375,0.0,0.0,0.0
1695726279368,-0.17285156,0.10449219,0.9423828,-0.34375,-0.03125,-0.09375,0.0,0.0,0.0
1695726279408,-0.17382812,0.103515625,0.9433594,-0.40625,-0.21875,0.0,0.0,0.0,0.0
1695726279447,-0.17285156,0.10644531,0.9375,-0.0625,-0.03125,-0.03125,0.0,0.0,0.0
1695726279489,-0.16992188,0.109375,0.9404297,0.0,-0.34375,0.0625,-45.3125,-17.9375,-88.5625
1695726279528,-0.16992188,0.103515625,0.9326172,-0.09375,0.03125,-0.03125,0.0,0.0,0.0
1695726279568,-0.16601562,0.10644531,0.9404297,0.0,-0.34375,-0.03125,0.0,0.0,0.0
1695726279608,-0.16503906,0.10449219,0.9375,-0.15625,-0.09375,-0.03125,0.0,0.0,0.0
1695726279668,-0.16699219,0.107421875,0.9482422,0.0,0.03125,0.0625,0.0,0.0,0.0
1695726279687,-0.16601562,0.10839844,0.953125,-0.09375,-0.09375,0.0625,0.0,0.0,0.0
1695726279751,-0.16992188,0.11035156,0.9472656,-0.09375,0.1875,0.0,0.0,0.0,0.0
1695726279767,-0.17382812,0.103515625,0.9238281,-0.15625,0.09375,0.0625,0.0,0.0,0.0
1695726279808,-0.17089844,0.103515625,0.9511719,0.0625,0.03125,-0.03125,0.0,0.0,0.0
1695726279852,-0.16894531,0.1015625,0.91796875,-0.15625,-0.03125,-0.03125,0.0,0.0,0.0
1695726279887,-0.17285156,0.107421875,0.94140625,-0.0625,0.03125,-0.09375,0.0,0.0,0.0
1695726279927,-0.16894531,0.10449219,0.93652344,-0.21875,-0.03125,-0.03125,0.0,0.0,0.0
1695726279968,-0.16796875,0.111328125,0.94433594,-0.15625,0.09375,-0.03125,0.0,0.0,0.0
1695726280007,-0.17480469,0.10644531,0.9472656,-0.15625,-0.03125,0.0625,-46.1875,-17.0625,-88.375
1695726280049,-0.17480469,0.10644531,0.93359375,-0.28125,-0.03125,0.0,0.0,0.0,0.0
1695726280088,-0.16503906,0.115234375,0.9345703,-0.21875,-0.15625,0.0625,0.0,0.0,0.0
1695726280127,-0.17089844,0.10644531,0.9375,-0.15625,0.09375,0.0,0.0,0.0,0.0
1695726280168,-0.16992188,0.11230469,0.93359375,-0.21875,-0.09375,-0.09375,0.0,0.0,0.0
1695726280208,-0.16796875,0.10253906,0.9453125,-0.40625,0.09375,-0.03125,0.0,0.0,0.0
1695726280248,-0.16894531,0.10839844,0.94628906,-0.21875,0.03125,-0.21875,0.0,0.0,0.0
1695726280288,-0.17480469,0.107421875,0.9326172,-0.78125,-0.03125,0.0,0.0,0.0,0.0
1695726280328,-0.17382812,0.10449219,0.93066406,-0.46875,0.1875,0.125,0.0,0.0,0.0
1695726280369,-0.17285156,0.103515625,0.9394531,0.0,-0.34375,-0.09375,0.0,0.0,0.0
1695726280427,-0.17285156,0.1015625,0.94433594,-0.15625,-0.09375,0.0625,0.0,0.0,0.0
1695726280448,-0.17675781,0.10449219,0.9394531,-0.28125,0.09375,-0.09375,0.0,0.0,0.0
1695726280488,-0.17089844,0.107421875,0.9394531,-0.34375,-0.21875,0.0,-45.125,-17.5,-89.0
1695726280528,-0.17285156,0.10546875,0.9277344,0.0,0.09375,-0.09375,0.0,0.0,0.0
1695726280589,-0.16894531,0.099609375,0.9433594,-0.34375,0.09375,-0.03125,0.0,0.0,0.0
1695726280607,-0.17089844,0.10546875,0.9326172,-0.34375,-0.03125,0.125,0.0,0.0,0.0
1695726280668,-0.16503906,0.10546875,0.94628906,0.25,-0.09375,-0.03125,0.0,0.0,0.0
1695726280692,-0.16992188,0.10546875,0.9355469,0.0625,-0.03125,-0.09375,0.0,0.0,0.0
1695726280728,-0.16992188,0.10839844,0.93066406,-0.09375,0.03125,-0.03125,0.0,0.0,0.0
1695726280773,-0.17480469,0.103515625,0.9482422,0.0,0.09375,0.125,0.0,0.0,0.0
1695726280807,-0.16601562,0.103515625,0.94628906,0.125,0.15625,0.0,0.0,0.0,0.0
1695726280851,-0.17382812,0.11816406,0.93652344,0.125,0.1875,0.0,0.0,0.0,0.0
1695726280887,-0.17285156,0.10546875,0.9404297,0.125,0.15625,-0.09375,0.0,0.0,0.0
1695726280929,-0.16699219,0.10449219,0.95214844,0.25,0.03125,-0.09375,0.0,0.0,0.0
1695726280976,-0.16992188,0.10546875,0.9326172,0.3125,0.09375,-0.03125,0.0,0.0,0.0
1695726281009,-0.1640625,0.107421875,0.94433594,0.0625,0.09375,-0.03125,-44.6875,-17.0625,-91.125
1695726281048,-0.17089844,0.10546875,0.9355469,-0.15625,0.1875,0.0625,0.0,0.0,0.0
1695726281088,-0.16796875,0.10839844,0.9316406,0.125,-0.03125,0.0,0.0,0.0,0.0
1695726281127,-0.16796875,0.10644531,0.94140625,0.125,0.09375,0.0625,0.0,0.0,0.0
1695726281187,-0.16601562,0.107421875,0.9433594,0.0625,0.09375,-0.03125,0.0,0.0,0.0
1695726281208,-0.17089844,0.107421875,0.9394531,0.125,0.15625,-0.15625,0.0,0.0,0.0
1695726281249,-0.16992188,0.103515625,0.94433594,0.4375,0.09375,-0.09375,0.0,0.0,0.0
1695726281288,-0.17773438,0.11425781,0.9267578,0.125,0.09375,0.0,0.0,0.0,0.0
1695726281329,-0.17285156,0.111328125,0.93652344,-0.15625,0.15625,-0.09375,0.0,0.0,0.0
1695726281371,-0.17578125,0.109375,0.9296875,-0.21875,0.15625,-0.03125,0.0,0.0,0.0
1695726281408,-0.17285156,0.109375,0.93652344,-0.34375,0.1875,-0.03125,0.0,0.0,0.0
1695726281448,-0.17285156,0.11035156,0.9326172,0.0625,0.1875,0.0,0.0,0.0,0.0
1695726281487,-0.16113281,0.10644531,0.93847656,0.375,-0.03125,0.0,-46.8125,-15.875,-89.875
1695726281530,-0.17285156,0.11035156,0.9472656,-0.15625,-0.03125,-0.03125,0.0,0.0,0.0
1695726281567,-0.16796875,0.11328125,0.93359375,-0.34375,-0.03125,-0.21875,0.0,0.0,0.0
1695726281610,-0.17578125,0.103515625,0.93359375,-0.34375,-0.03125,-0.09375,0.0,0.0,0.0
1695726281650,-0.1796875,0.11230469,0.92285156,0.125,-0.09375,-0.03125,0.0,0.0,0.0
1695726281693,-0.16308594,0.11621094,0.93847656,-0.15625,0.1875,-0.09375,0.0,0.0,0.0
1695726281728,-0.16992188,0.11035156,0.9345703,-0.34375,0.09375,0.0625,0.0,0.0,0.0
1695726281768,-0.17382812,0.10449219,0.9296875,0.0,-0.09375,0.125,0.0,0.0,0.0
1695726281809,-0.17382812,0.11035156,0.9394531,-0.15625,-0.15625,0.0625,0.0,0.0,0.0
1695726281848,-0.16601562,0.107421875,0.94921875,-0.46875,0.25,-0.03125,0.0,0.0,0.0
1695726281888,-0.16992188,0.111328125,0.9375,-0.46875,0.1875,0.0625,0.0,0.0,0.0
1695726281948,-0.17382812,0.109375,0.94140625,0.0,0.3125,-0.09375,0.0,0.0,0.0
1695726281967,-0.16601562,0.11425781,0.93652344,-0.09375,0.15625,-0.03125,0.0,0.0,0.0
1695726282008,-0.1640625,0.11230469,0.9472656,-0.34375,0.15625,0.0625,-45.3125,-15.5625,-88.875
1695726282048,-0.17285156,0.11035156,0.9423828,-0.34375,0.25,0.0,0.0,0.0,0.0
1695726282088,-0.16894531,0.10546875,0.9560547,-0.15625,0.15625,-0.09375,0.0,0.0,0.0
1695726282134,-0.16601562,0.10546875,0.93652344,-0.15625,0.09375,-0.03125,0.0,0.0,0.0
1695726282167,-0.16796875,0.109375,0.9404297,-0.40625,0.1875,0.125,0.0,0.0,0.0
1695726282206,-0.17871094,0.11035156,0.9423828,-0.40625,0.15625,0.0,0.0,0.0,0.0
1695726282248,-0.16992188,0.11425781,0.9501953,-0.21875,-0.03125,-0.09375,0.0,0.0,0.0
1695726282288,-0.171875,0.09765625,0.93652344,-0.15625,0.15625,0.0625,0.0,0.0,0.0
1695726282327,-0.17871094,0.099609375,0.9472656,-0.34375,0.15625,0.0625,0.0,0.0,0.0
1695726282368,-0.171875,0.109375,0.9394531,-0.28125,-0.03125,-0.03125,0.0,0.0,0.0
1695726282408,-0.17675781,0.10644531,0.9453125,-0.34375,0.03125,-0.09375,0.0,0.0,0.0
1695726282448,-0.17285156,0.107421875,0.93359375,-0.46875,-0.03125,0.0625,0.0,0.0,0.0
1695726282487,-0.17871094,0.09765625,0.953125,-0.0625,0.1875,0.0625,-44.5625,-16.625,-89.625
1695726282527,-0.171875,0.09863281,0.94140625,-0.0625,-0.09375,-0.03125,0.0,0.0,0.0
1695726282567,-0.17675781,0.10644531,0.9316406,-0.28125,-0.28125,-0.15625,0.0,0.0,0.0
1695726282608,-0.17382812,0.107421875,0.93847656,-0.53125,0.03125,-0.21875,0.0,0.0,0.0
1695726282648,-0.16992188,0.10253906,0.94140625,-0.46875,-0.09375,0.0625,0.0,0.0,0.0
1695726282708,-0.16601562,0.1015625,0.94921875,0.0,-0.09375,-0.03125,0.0,0.0,0.0
1695726282729,-0.16601562,0.10253906,0.92578125,-0.53125,-0.21875,0.0,0.0,0.0,0.0
1695726282768,-0.16601562,0.10644531,0.93652344,-0.34375,0.25,0.0625,0.0,0.0,0.0
1695726282810,-0.16601562,0.107421875,0.9326172,-0.40625,-0.09375,-0.03125,0.0,0.0,0.0
1695726282850,-0.17675781,0.10253906,0.94433594,-0.34375,-0.03125,0.0625,0.0,0.0,0.0
1695726282888,-0.18066406,0.11230469,0.9472656,-0.28125,0.09375,-0.09375,0.0,0.0,0.0
1695726282927,-0.17089844,0.10253906,0.94433594,-0.46875,0.09375,0.1875,0.0,0.0,0.0
1695726282988,-0.17285156,0.10644531,0.9375,-0.15625,0.15625,-0.03125,0.0,0.0,0.0
1695726283007,-0.16796875,0.10253906,0.9375,-0.09375,0.03125,0.125,-44.25,-16.625,-89.125
1695726283048,-0.17089844,0.10058594,0.9433594,-0.21875,0.03125,0.0,0.0,0.0,0.0
1695726283096,-0.17578125,0.10449219,0.92871094,-0.34375,-0.09375,-0.09375,0.0,0.0,0.0
1695726283127,-0.17578125,0.099609375,0.9453125,-0.21875,-0.03125,-0.09375,0.0,0.0,0.0
1695726283167,-0.17480469,0.10253906,0.9433594,-0.21875,-0.03125,0.0625,0.0,0.0,0.0
1695726283208,-0.17773438,0.09863281,0.9501953,-0.21875,-0.03125,0.125,0.0,0.0,0.0
1695726283248,-0.16796875,0.10644531,0.93066406,-0.21875,0.03125,-0.03125,0.0,0.0,0.0
1695726283289,-0.17285156,0.11035156,0.9511719,-0.15625,0.1875,-0.03125,0.0,0.0,0.0
1695726283328,-0.17089844,0.115234375,0.9423828,-0.21875,-0.03125,0.0625,0.0,0.0,0.0
1695726283368,-0.17285156,0.10449219,0.94628906,-0.15625,-0.15625,0.0625,0.0,0.0,0.0
1695726283408,-0.17871094,0.10449219,0.93847656,-0.21875,-0.03125,-0.03125,0.0,0.0,0.0
1695726283467,-0.16894531,0.107421875,0.9472656,-0.46875,0.15625,-0.03125,0.0,0.0,0.0
1695726283487,-0.17382812,0.10253906,0.93652344,-0.59375,0.03125,0.0625,-44.6875,-17.5,-89.0
1695726283527,-0.1796875,0.10546875,0.9433594,0.0,0.15625,0.0,0.0,0.0,0.0
1695726283568,-0.16699219,0.107421875,0.9472656,0.0,-0.28125,-0.09375,0.0,0.0,0.0
1695726283610,-0.16308594,0.1015625,0.94140625,-0.21875,-0.21875,0.0625,0.0,0.0,0.0
1695726283648,-0.16796875,0.10253906,0.9375,-0.28125,-0.03125,-0.21875,0.0,0.0,0.0
1695726283690,-0.16894531,0.10253906,0.92871094,-0.40625,-0.09375,0.0,0.0,0.0,0.0
1695726283728,-0.171875,0.111328125,0.93847656,-0.28125,-0.09375,-0.03125,0.0,0.0,0.0
1695726283769,-0.17285156,0.107421875,0.9355469,-0.34375,0.09375,0.125,0.0,0.0,0.0
1695726283809,-0.17089844,0.111328125,0.94921875,-0.28125,0.09375,0.0625,0.0,0.0,0.0
1695726283849,-0.16992188,0.107421875,0.9326172,-0.0625,0.09375,-0.15625,0.0,0.0,0.0
1695726283907,-0.171875,0.11230469,0.9404297,-0.28125,-0.21875,0.0,0.0,0.0,0.0
1695726283929,-0.17089844,0.10644531,0.9404297,-0.15625,0.03125,0.0,0.0,0.0,0.0
1695726283968,-0.17285156,0.10253906,0.9482422,-0.15625,0.03125,0.0,0.0,0.0,0.0
1695726284011,-0.16796875,0.10644531,0.9423828,-0.21875,-0.03125,-0.03125,-45.0,-16.9375,-87.8125
1695726284047,-0.17578125,0.09765625,0.9316406,-0.0625,0.03125,-0.09375,0.0,0.0,0.0
1695726284090,-0.16503906,0.107421875,0.9472656,-0.09375,0.15625,-0.15625,0.0,0.0,0.0
1695726284133,-0.171875,0.1015625,0.9501953,-0.21875,0.03125,-0.03125,0.0,0.0,0.0
1695726284170,-0.1796875,0.09667969,0.9375,-0.21875,-0.03125,-0.03125,0.0,0.0,0.0
1695726284227,-0.16992188,0.11035156,0.95214844,0.09375,-0.03125,-0.03125,0.0,0.0,0.0
1695726284267,-0.17089844,0.10546875,0.9511719,-0.09375,-0.03125,0.0,0.0,0.0,0.0
1695726284287,-0.17285156,0.099609375,0.9560547,-0.03125,-0.03125,-0.03125,0.0,0.0,0.0
1695726284328,-0.16992188,0.10644531,0.953125,0.15625,-0.15625,0.0625,0.0,0.0,0.0
1695726284368,-0.16796875,0.103515625,0.9345703,0.03125,0.03125,-0.03125,0.0,0.0,0.0
1695726284408,-0.17578125,0.09667969,0.953125,-0.09375,0.03125,0.0625,0.0,0.0,0.0
1695726284448,-0.16894531,0.109375,0.9501953,0.21875,-0.09375,-0.03125,0.0,0.0,0.0
1695726284489,-0.16796875,0.103515625,0.9326172,0.34375,0.03125,-0.09375,-45.125,-17.5,-89.4375
1695726284528,-0.16992188,0.09765625,0.9326172,-0.03125,-0.03125,0.125,0.0,0.0,0.0
1695726284567,-0.17089844,0.09765625,0.9482422,-0.21875,0.125,0.0625,0.0,0.0,0.0
1695726284608,-0.1640625,0.11035156,0.92871094,-0.15625,0.0625,0.0625,0.0,0.0,0.0
1695726284647,-0.17382812,0.10839844,0.9580078,0.21875,0.125,0.0,0.0,0.0,0.0
1695726284690,-0.15722656,0.10253906,0.9472656,0.53125,-0.28125,-0.09375,0.0,0.0,0.0
1695726284728,-0.16992188,0.09667969,0.953125,0.21875,-0.21875,-0.03125,0.0,0.0,0.0
1695726284767,-0.17285156,0.1015625,0.94433594,0.28125,-0.15625,-0.09375,0.0,0.0,0.0
1695726284829,-0.17382812,0.10546875,0.9355469,0.15625,-0.15625,-0.03125,0.0,0.0,0.0
1695726284847,-0.17089844,0.11035156,0.9404297,0.09375,0.0625,-0.09375,0.0,0.0,0.0
1695726284887,-0.17089844,0.10253906,0.93652344,0.40625,0.0625,-0.09375,0.0,0.0,0.0
1695726284931,-0.17480469,0.099609375,0.9423828,0.28125,0.03125,0.0,0.0,0.0,0.0
1695726284988,-0.16699219,0.11230469,0.9453125,0.28125,0.03125,-0.03125,0.0,0.0,0.0
1695726285008,-0.16992188,0.10058594,0.94921875,0.15625,-0.03125,0.0,-46.0625,-17.375,-89.625
1695726285050,-0.1796875,0.109375,0.9453125,0.40625,0.125,-0.03125,0.0,0.0,0.0
1695726285088,-0.16894531,0.09863281,0.91796875,0.21875,0.0625,0.0,0.0,0.0,0.0
1695726285128,-0.16796875,0.10644531,0.9316406,0.21875,0.1875,0.0,0.0,0.0,0.0
1695726285168,-0.171875,0.109375,0.94628906,0.46875,0.1875,0.0,0.0,0.0,0.0
1695726285206,-0.16894531,0.10644531,0.94921875,0.34375,0.0625,-0.03125,0.0,0.0,0.0
1695726285246,-0.17089844,0.109375,0.9423828,0.28125,0.125,-0.03125,0.0,0.0,0.0
1695726285289,-0.171875,0.111328125,0.9394531,0.15625,0.03125,0.0,0.0,0.0,0.0
1695726285328,-0.17480469,0.115234375,0.9423828,0.34375,0.0625,-0.03125,0.0,0.0,0.0
1695726285368,-0.1796875,0.1015625,0.9394531,0.21875,0.0625,0.125,0.0,0.0,0.0
1695726285407,-0.17285156,0.103515625,0.9453125,0.15625,0.03125,0.0,0.0,0.0,0.0
1695726285446,-0.1796875,0.10253906,0.9326172,0.28125,0.0625,-0.03125,0.0,0.0,0.0
1695726285487,-0.16601562,0.10839844,0.95996094,0.34375,-0.03125,-0.09375,-45.3125,-17.6875,-89.875
1695726285526,-0.171875,0.11230469,0.94433594,0.40625,0.125,-0.03125,0.0,0.0,0.0
1695726285567,-0.16796875,0.1015625,0.9277344,0.28125,0.0625,-0.03125,0.0,0.0,0.0
1695726285628,-0.17578125,0.10644531,0.9316406,0.28125,-0.15625,-0.03125,0.0,0.0,0.0
1695726285649,-0.17578125,0.115234375,0.93652344,0.21875,0.03125,-0.09375,0.0,0.0,0.0
1695726285687,-0.17382812,0.11035156,0.93066406,0.03125,0.1875,-0.03125,0.0,0.0,0.0
1695726285747,-0.16894531,0.10839844,0.94433594,0.09375,0.03125,0.0625,0.0,0.0,0.0
1695726285768,-0.16503906,0.10253906,0.9394531,0.34375,0.3125,0.0,0.0,0.0,0.0
1695726285809,-0.16796875,0.11035156,0.93652344,0.34375,-0.15625,-0.09375,0.0,0.0,0.0
1695726285853,-0.18066406,0.111328125,0.92871094,-0.28125,-0.09375,0.0,0.0,0.0,0.0
1695726285889,-0.17871094,0.109375,0.9511719,-0.21875,0.0625,-0.21875,0.0,0.0,0.0
1695726285928,-0.17089844,0.11425781,0.9472656,-0.03125,0.03125,-0.03125,0.0,0.0,0.0
1695726285968,-0.16796875,0.10546875,0.9404297,0.15625,0.0625,-0.09375,0.0,0.0,0.0
1695726286013,-0.171875,0.111328125,0.9326172,-0.5625,-0.03125,0.125,-45.0,-17.6875,-88.5625
1695726286051,-0.17382812,0.10644531,0.93652344,-0.34375,0.375,0.125,0.0,0.0,0.0
1695726286088,-0.16894531,0.109375,0.9316406,-0.03125,-0.21875,0.0625,0.0,0.0,0.0
1695726286128,-0.17578125,0.111328125,0.94433594,-0.21875,-0.09375,-0.03125,0.0,0.0,0.0
1695726286168,-0.16992188,0.109375,0.9404297,-0.34375,0.1875,-0.09375,0.0,0.0,0.0
1695726286210,-0.18066406,0.1015625,0.93847656,-0.21875,0.0625,0.0,0.0,0.0,0.0
1695726286251,-0.17578125,0.115234375,0.9296875,-0.09375,0.03125,-0.09375,0.0,0.0,0.0
1695726286287,-0.17089844,0.111328125,0.9375,-0.09375,-0.03125,0.0,0.0,0.0,0.0
1695726286329,-0.1640625,0.11035156,0.93847656,0.03125,0.03125,-0.03125,0.0,0.0,0.0
1695726286368,-0.16113281,0.109375,0.9511719,-0.09375,-0.15625,-0.03125,0.0,0.0,0.0
1695726286407,-0.17773438,0.115234375,0.94628906,-0.21875,-0.09375,0.0625,0.0,0.0,0.0
1695726286448,-0.16894531,0.10839844,0.93359375,-0.375,-0.09375,0.125,0.0,0.0,0.0
1695726286507,-0.17285156,0.10839844,0.9580078,-0.21875,-0.09375,0.0,-45.125,-16.4375,-89.75
1695726286569,-0.17089844,0.095703125,0.9296875,-0.34375,-0.09375,-0.03125,0.0,0.0,0.0
1695726286571,-0.17089844,0.103515625,0.93847656,-0.09375,-0.15625,-0.03125,0.0,0.0,0.0
1695726286612,-0.171875,0.10253906,0.9453125,-0.03125,-0.15625,0.0,0.0,0.0,0.0
1695726286648,-0.17773438,0.10546875,0.9511719,-0.28125,-0.09375,0.0625,0.0,0.0,0.0
1695726286688,-0.17773438,0.1015625,0.9277344,-0.09375,-0.09375,-0.09375,0.0,0.0,0.0
1695726286730,-0.17285156,0.10546875,0.9326172,-0.5,-0.09375,-0.03125,0.0,0.0,0.0
1695726286768,-0.18066406,0.10839844,0.9375,-0.21875,0.3125,0.0625,0.0,0.0,0.0
1695726286808,-0.171875,0.10253906,0.9433594,0.28125,-0.21875,-0.03125,0.0,0.0,0.0
1695726286849,-0.16992188,0.11425781,0.94921875,-0.03125,-0.15625,-0.09375,0.0,0.0,0.0
1695726286887,-0.16992188,0.1015625,0.9238281,-0.5625,-0.09375,-0.15625,0.0,0.0,0.0
1695726286928,-0.17773438,0.109375,0.9501953,-0.375,0.0625,0.0,0.0,0.0,0.0
1695726286968,-0.17578125,0.109375,0.9472656,0.15625,0.0625,-0.03125,0.0,0.0,0.0
1695726287009,-0.17089844,0.107421875,0.9345703,-0.15625,-0.21875,0.0625,-45.3125,-17.375,-90.625
1695726287048,-0.16015625,0.10058594,0.94628906,-0.21875,0.1875,-0.03125,0.0,0.0,0.0
1695726287087,-0.17675781,0.10546875,0.9433594,0.09375,-0.15625,-0.03125,0.0,0.0,0.0
1695726287128,-0.17578125,0.10253906,0.93652344,0.03125,0.0625,0.0,0.0,0.0,0.0
1695726287167,-0.16796875,0.10546875,0.9423828,-0.03125,0.03125,-0.09375,0.0,0.0,0.0
1695726287208,-0.171875,0.10253906,0.9511719,-0.03125,-0.09375,0.0,0.0,0.0,0.0
1695726287570,-0.17871094,0.10253906,0.9404297,0.09375,0.03125,-0.03125,-45.625,-19.1875,-88.25
1695726287576,-0.17382812,0.10644531,0.9238281,0.15625,-0.03125,0.0,0.0,0.0,0.0
1695726287579,-0.18359375,0.10253906,0.9277344,0.03125,0.0625,0.0625,0.0,0.0,0.0
1695726287582,-0.17675781,0.109375,0.9375,-0.03125,-0.03125,-0.03125,0.0,0.0,0.0
1695726287591,-0.17480469,0.10839844,0.93847656,0.28125,-0.21875,-0.09375,0.0,0.0,0.0
1695726287593,-0.16699219,0.10449219,0.9589844,0.09375,-0.03125,-0.03125,0.0,0.0,0.0
1695726287598,-0.15820312,0.099609375,0.93847656,0.03125,-0.09375,0.0,0.0,0.0,0.0
1695726287601,-0.17675781,0.09863281,0.9326172,0.09375,-0.09375,-0.03125,0.0,0.0,0.0
1695726287609,-0.16113281,0.09765625,0.93847656,-0.03125,-0.09375,-0.03125,0.0,0.0,0.0
1695726287610,-0.17480469,0.1015625,0.9394531,0.09375,0.03125,0.0625,0.0,0.0,0.0
1695726287647,-0.16796875,0.099609375,0.9345703,0.09375,-0.09375,-0.15625,0.0,0.0,0.0
1695726287689,-0.16894531,0.111328125,0.9423828,-0.03125,0.03125,0.0,0.0,0.0,0.0
1695726287726,-0.17382812,0.107421875,0.9433594,-0.15625,-0.03125,0.0,0.0,0.0,0.0
1695726287767,-0.16503906,0.10546875,0.9326172,-0.21875,0.125,-0.15625,0.0,0.0,0.0
1695726287808,-0.17675781,0.10644531,0.94140625,-0.21875,-0.09375,0.125,0.0,0.0,0.0
1695726287848,-0.17089844,0.10644531,0.9375,0.15625,-0.03125,0.0,0.0,0.0,0.0
1695726287928,-0.16992188,0.1015625,0.9345703,0.09375,-0.15625,-0.03125,0.0,0.0,0.0
1695726287931,-0.16113281,0.10546875,0.9482422,-0.28125,-0.09375,-0.03125,0.0,0.0,0.0
1695726287968,-0.16796875,0.10253906,0.9433594,-0.03125,-0.15625,-0.03125,0.0,0.0,0.0
1695726288028,-0.18066406,0.10253906,0.9326172,-0.09375,-0.15625,-0.09375,-45.3125,-18.4375,-89.625
1695726288047,-0.17285156,0.10546875,0.9433594,0.21875,-0.09375,0.0,0.0,0.0,0.0
1695726288088,-0.1640625,0.11035156,0.9560547,-0.03125,-0.09375,0.125,0.0,0.0,0.0
1695726288128,-0.17089844,0.1015625,0.9472656,0.15625,-0.09375,0.0,0.0,0.0,0.0
1695726288209,-0.16992188,0.099609375,0.9482422,0.28125,-0.09375,-0.09375,0.0,0.0,0.0
1695726288211,-0.17089844,0.10058594,0.93066406,0.15625,-0.09375,0.0,0.0,0.0,0.0
1695726288289,-0.17089844,0.09667969,0.95410156,0.09375,0.0625,0.0625,0.0,0.0,0.0
1695726288292,-0.17089844,0.107421875,0.9394531,0.28125,0.03125,0.0,0.0,0.0,0.0
1695726288453,-0.16992188,0.10253906,0.93847656,0.15625,0.0625,-0.03125,0.0,0.0,0.0
1695726288456,-0.17089844,0.107421875,0.9472656,0.15625,0.0625,-0.09375,0.0,0.0,0.0
1695726288458,-0.16894531,0.1015625,0.93652344,0.28125,-0.03125,-0.03125,0.0,0.0,0.0
1695726288461,-0.16503906,0.11425781,0.9404297,0.28125,0.0625,-0.03125,0.0,0.0,0.0
1695726288491,-0.17578125,0.10546875,0.93359375,0.21875,-0.09375,0.0,-45.875,-17.0625,-89.4375
1695726288528,-0.16796875,0.109375,0.9277344,0.15625,-0.03125,-0.03125,0.0,0.0,0.0
1695726288568,-0.17089844,0.111328125,0.9345703,0.21875,0.03125,0.0,0.0,0.0,0.0
1695726288608,-0.17578125,0.09863281,0.9277344,0.28125,0.03125,-0.09375,0.0,0.0,0.0
1695726288650,-0.17480469,0.10644531,0.9404297,0.34375,0.03125,0.0,0.0,0.0,0.0
1695726288688,-0.16894531,0.11230469,0.9482422,0.15625,0.0625,-0.03125,0.0,0.0,0.0
1695726288727,-0.16992188,0.10253906,0.9423828,0.46875,0.0625,-0.15625,0.0,0.0,0.0
1695726288787,-0.171875,0.103515625,0.93847656,0.28125,-0.03125,-0.09375,0.0,0.0,0.0
1695726288808,-0.16992188,0.11621094,0.93359375,0.09375,-0.09375,-0.09375,0.0,0.0,0.0
1695726288848,-0.15917969,0.111328125,0.9326172,0.46875,-0.21875,-0.15625,0.0,0.0,0.0
1695726288888,-0.17285156,0.115234375,0.9375,0.46875,-0.15625,-0.15625,0.0,0.0,0.0
1695726288929,-0.16796875,0.103515625,0.93652344,-0.03125,-0.09375,0.0,0.0,0.0,0.0
1695726288989,-0.16601562,0.10644531,0.9267578,-0.03125,0.0625,0.0625,0.0,0.0,0.0
1695726289008,-0.17089844,0.10058594,0.9296875,0.15625,-0.03125,0.0625,-46.1875,-17.5,-89.75
1695726289048,-0.16992188,0.10644531,0.9316406,0.46875,-0.21875,-0.03125,0.0,0.0,0.0
1695726289089,-0.16113281,0.115234375,0.9453125,0.34375,-0.28125,0.0,0.0,0.0,0.0
1695726289133,-0.16992188,0.11425781,0.9433594,-0.09375,-0.15625,-0.15625,0.0,0.0,0.0
1695726289166,-0.16796875,0.109375,0.9375,0.09375,-0.03125,-0.21875,0.0,0.0,0.0
1695726289207,-0.17382812,0.111328125,0.95410156,0.09375,-0.03125,-0.09375,0.0,0.0,0.0
1695726289247,-0.17675781,0.115234375,0.94433594,0.34375,0.03125,0.0,0.0,0.0,0.0
1695726289289,-0.16796875,0.10546875,0.9482422,-0.28125,-0.28125,0.1875,0.0,0.0,0.0
1695726289330,-0.171875,0.10839844,0.93847656,0.03125,0.0625,0.125,0.0,0.0,0.0
1695726289371,-0.16796875,0.10644531,0.9296875,-0.03125,-0.15625,0.0625,0.0,0.0,0.0
1695726289409,-0.16992188,0.111328125,0.93652344,-0.5,-0.03125,0.0625,0.0,0.0,0.0
1695726289449,-0.17285156,0.11328125,0.9355469,-0.28125,0.125,-0.03125,0.0,0.0,0.0
1695726289488,-0.16503906,0.10449219,0.9404297,-0.21875,-0.03125,0.0,-45.125,-17.0625,-90.8125
1695726289548,-0.171875,0.11035156,0.9345703,-0.03125,0.0625,0.0,0.0,0.0,0.0
1695726289568,-0.17285156,0.109375,0.9345703,-0.4375,-0.09375,0.0,0.0,0.0,0.0
1695726289610,-0.17773438,0.10253906,0.94628906,-0.28125,0.03125,-0.03125,0.0,0.0,0.0
1695726289648,-0.16992188,0.11035156,0.9453125,-0.28125,-0.03125,0.0,0.0,0.0,0.0
1695726289687,-0.16308594,0.1015625,0.9404297,-0.28125,-0.09375,0.0,0.0,0.0,0.0
1695726289727,-0.17089844,0.11230469,0.95214844,-0.5,-0.40625,0.125,0.0,0.0,0.0
