,timestamp,accel_x,accel_y,accel_z,gyro_x,gyro_y,gyro_z,mag_x,mag_y,mag_z
0,1695814198808,-1.3359375,0.57910156,1.4238281,-41.15625,121.125,65.34375,0.0,0.0,0.0
1,1695814198832,-1.4746094,-0.26171875,-0.13085938,-170.96875,151.0,-12.96875,0.0,0.0,0.0
2,1695814198856,-0.95410156,0.06640625,0.10253906,-77.15625,102.65625,52.34375,0.0,0.0,0.0
3,1695814198908,-1.4658203,0.3251953,0.02734375,-15.625,66.03125,89.21875,0.0,0.0,0.0
4,1695814198957,-1.3925781,0.2421875,-0.12109375,-168.15625,103.0,128.40625,0.0,0.0,0.0
5,1695814198982,-1.9052734,-1.0048828,-0.29882812,-129.84375,123.34375,189.625,0.0,0.0,0.0
6,1695814199031,-2.0,-1.2099609,-0.43554688,-4.34375,145.375,231.0,0.0,0.0,0.0
7,1695814199056,-1.8398438,-0.390625,0.6425781,61.5,156.0,153.5,0.0,0.0,0.0
8,1695814199107,-1.0332031,-0.1484375,-0.28710938,-43.09375,190.0625,103.75,0.0,0.0,0.0
9,1695814199131,-0.63183594,-0.7207031,1.0976562,37.65625,-37.75,49.3125,0.0,0.0,0.0
10,1695814199182,-0.16992188,-0.7109375,-0.23730469,-65.75,-154.0625,-163.28125,0.0,0.0,0.0
11,1695814199232,-0.52734375,0.9560547,0.9042969,-67.09375,-232.0625,-145.28125,-90.0,33.3125,-48.0625
12,1695814199256,-1.7011719,-0.18554688,-0.064453125,64.375,-210.90625,-210.40625,0.0,0.0,0.0
13,1695814199307,-2.0,-0.4814453,-0.70703125,97.6875,-249.90625,-302.8125,0.0,0.0,0.0
14,1695814199332,-2.0,-0.07519531,0.28125,77.0625,-209.5625,-236.21875,0.0,0.0,0.0
15,1695814199382,-1.3144531,-0.9404297,-0.20410156,110.34375,-107.0,-199.0,0.0,0.0,0.0
16,1695814199432,-0.18457031,0.28027344,-0.19824219,138.84375,-91.09375,-53.46875,0.0,0.0,0.0
17,1695814199482,0.6513672,0.9453125,0.013671875,21.46875,143.1875,28.625,0.0,0.0,0.0
18,1695814199507,1.4023438,0.69433594,-0.51171875,-192.53125,190.09375,129.4375,0.0,0.0,0.0
19,1695814199531,-0.28808594,0.8232422,0.82421875,-50.90625,37.65625,147.03125,0.0,0.0,0.0
20,1695814199581,-1.375,-1.1455078,-1.2724609,-117.5625,34.09375,-28.59375,0.0,0.0,0.0
21,1695814199633,-2.0,2.0,0.9013672,-118.84375,57.0625,119.625,0.0,0.0,0.0
22,1695814199657,-0.052734375,0.375,0.33203125,-10.21875,-11.1875,-76.0,0.0,0.0,0.0
23,1695814199708,-0.81933594,1.2626953,-0.70996094,-40.46875,83.96875,335.125,0.0,0.0,0.0
24,1695814199758,-2.0,-1.7822266,-1.3408203,160.3125,89.28125,214.09375,-89.125,19.5625,-45.5
25,1695814199782,-1.6259766,0.06347656,0.4267578,112.15625,120.03125,158.6875,0.0,0.0,0.0
26,1695814199834,-1.1894531,0.18945312,-0.28027344,16.28125,140.0625,135.84375,0.0,0.0,0.0
27,1695814199857,-0.6982422,-1.1748047,0.7402344,-64.59375,36.71875,63.59375,0.0,0.0,0.0
28,1695814199907,0.09667969,-1.1611328,-0.23144531,-8.125,-9.96875,-113.125,0.0,0.0,0.0
29,1695814199932,-0.49023438,0.46289062,0.6611328,49.65625,-165.65625,-142.34375,0.0,0.0,0.0
30,1695814199986,-0.8017578,0.055664062,-0.04296875,116.4375,-187.03125,-135.15625,0.0,0.0,0.0
31,1695814200033,-2.0,-0.7392578,-0.37304688,145.25,-256.4375,-201.25,0.0,0.0,0.0
32,1695814200056,-2.0,-0.24023438,0.053710938,-8.875,-253.375,-203.5625,0.0,0.0,0.0
33,1695814200107,-1.6787109,-0.55859375,-0.14941406,33.1875,-97.625,-243.5,0.0,0.0,0.0
34,1695814200135,-0.28710938,-0.5878906,-0.13867188,106.3125,-11.90625,-90.71875,0.0,0.0,0.0
35,1695814200199,0.8359375,1.0654297,-0.5625,89.875,74.21875,52.53125,0.0,0.0,0.0
36,1695814200238,1.1210938,0.9199219,-0.99902344,-71.4375,236.75,132.3125,-71.6875,36.625,-22.6875
37,1695814200256,-0.69921875,0.7597656,0.46679688,23.4375,18.125,193.59375,0.0,0.0,0.0
38,1695814200306,-1.3896484,-0.032226562,1.6015625,60.03125,-51.28125,-39.125,0.0,0.0,0.0
39,1695814200332,-2.0,-0.28125,1.7587891,-442.21875,196.59375,14.375,0.0,0.0,0.0
40,1695814200382,-0.109375,0.111328125,0.01171875,0.0,27.75,-130.15625,0.0,0.0,0.0
41,1695814200432,-1.0449219,1.0527344,-0.5283203,-83.8125,96.65625,381.625,0.0,0.0,0.0
42,1695814200457,-2.0,-1.8974609,-0.9003906,84.40625,58.40625,244.96875,0.0,0.0,0.0
43,1695814200507,-1.3623047,-0.43164062,0.19042969,54.96875,133.78125,162.09375,0.0,0.0,0.0
44,1695814200532,-1.0703125,-0.076171875,0.2890625,35.6875,95.03125,134.03125,0.0,0.0,0.0
45,1695814200607,-0.57714844,-1.0527344,0.30566406,-6.1875,25.6875,73.53125,0.0,0.0,0.0
46,1695814200633,-0.0625,-0.81152344,0.20410156,-81.125,29.15625,-79.53125,0.0,0.0,0.0
47,1695814200682,0.040039062,-0.025390625,0.40039062,42.21875,-81.375,-139.0625,0.0,0.0,0.0
48,1695814200708,-0.7480469,-0.3017578,0.2861328,93.84375,-158.84375,-140.6875,0.0,0.0,0.0
49,1695814200732,-2.0,-0.69628906,-0.46679688,140.0625,-204.1875,-178.0625,-88.8125,24.9375,-36.0625
50,1695814200781,-2.0,0.30566406,-0.09375,79.40625,-194.34375,-279.6875,0.0,0.0,0.0
51,1695814200858,-1.7148438,-0.14355469,-0.26953125,58.59375,-76.84375,-273.15625,0.0,0.0,0.0
52,1695814200861,-0.3701172,-0.7207031,-0.30371094,94.03125,-36.21875,-97.96875,0.0,0.0,0.0
53,1695814200908,0.53222656,1.0722656,-0.2734375,111.25,32.53125,36.0,0.0,0.0,0.0
54,1695814200932,1.0927734,1.2207031,-0.69628906,-89.375,215.6875,167.21875,0.0,0.0,0.0
55,1695814200983,-0.2705078,0.71484375,0.55371094,-43.59375,2.96875,161.125,0.0,0.0,0.0
56,1695814201032,-1.2705078,-1.4189453,-0.43066406,33.96875,-5.4375,-20.9375,0.0,0.0,0.0
57,1695814201059,-1.0878906,-0.9873047,2.0,-482.1875,130.53125,11.15625,0.0,0.0,0.0
58,1695814201107,-1.8134766,-1.1396484,0.43164062,148.375,137.0,-99.5625,0.0,0.0,0.0
59,1695814201131,-0.05078125,1.7636719,-0.76171875,-166.53125,180.53125,250.59375,0.0,0.0,0.0
60,1695814201184,-2.0,-0.9892578,-2.0,85.25,189.75,249.1875,0.0,0.0,0.0
61,1695814201238,-1.4833984,0.036132812,0.35253906,17.0625,68.21875,113.28125,-92.125,24.9375,-39.9375
62,1695814201257,-1.2705078,0.64160156,0.15527344,52.15625,124.6875,140.25,0.0,0.0,0.0
63,1695814201308,-0.21972656,-1.0830078,0.74121094,-87.34375,39.40625,80.90625,0.0,0.0,0.0
64,1695814201332,0.31835938,-1.6982422,0.18359375,11.28125,15.0625,-100.65625,0.0,0.0,0.0
65,1695814201383,-0.5439453,0.5839844,0.90527344,55.15625,-141.3125,-144.59375,0.0,0.0,0.0
66,1695814201432,-0.9814453,-0.24609375,-0.31445312,98.0,-171.65625,-132.21875,0.0,0.0,0.0
67,1695814201483,-2.0,-0.74902344,-0.35839844,243.9375,-278.03125,-163.40625,0.0,0.0,0.0
68,1695814201534,-2.0,-0.49609375,0.015625,-64.78125,-263.75,-183.25,0.0,0.0,0.0
69,1695814201537,-1.0947266,-0.5283203,-0.14746094,-42.375,-109.9375,-256.84375,0.0,0.0,0.0
70,1695814201583,-0.25878906,-0.5107422,-0.13574219,77.125,-38.71875,-82.78125,0.0,0.0,0.0
71,1695814201633,0.7919922,1.0273438,-0.5625,166.0,37.65625,44.78125,0.0,0.0,0.0
72,1695814201658,1.1708984,0.71777344,-0.7998047,-126.96875,242.59375,156.46875,0.0,0.0,0.0
73,1695814201710,-0.7207031,0.5371094,-0.21289062,-22.71875,35.375,184.5,0.0,0.0,0.0
74,1695814201758,-1.9970703,-1.5166016,-0.91308594,-90.71875,254.25,-148.875,-76.1875,26.4375,-27.8125
75,1695814201783,-1.8779297,2.0,-0.99902344,56.75,-32.0625,98.4375,0.0,0.0,0.0
76,1695814201834,-1.140625,-1.9941406,0.45410156,71.21875,97.15625,-58.90625,0.0,0.0,0.0
77,1695814201858,-1.0078125,0.6044922,-0.87402344,-232.25,83.3125,225.3125,0.0,0.0,0.0
78,1695814201907,-2.0,-1.171875,-0.9238281,168.6875,1.375,280.625,0.0,0.0,0.0
79,1695814201957,-1.8525391,-0.2783203,0.34375,6.6875,86.34375,109.71875,0.0,0.0,0.0
80,1695814201982,-1.2236328,0.453125,0.041015625,-10.15625,102.78125,151.15625,0.0,0.0,0.0
81,1695814202033,-0.37597656,-1.0722656,0.8984375,-74.28125,75.0625,95.625,0.0,0.0,0.0
82,1695814202058,0.5673828,-1.5371094,-0.22070312,-29.0625,-7.40625,-108.90625,0.0,0.0,0.0
83,1695814202134,-0.6435547,0.47460938,0.86035156,32.28125,-158.59375,-143.09375,0.0,0.0,0.0
84,1695814202184,-0.97558594,-0.31445312,-0.24609375,139.8125,-181.71875,-139.46875,0.0,0.0,0.0
85,1695814202186,-2.0,-1.234375,-0.3310547,242.71875,-247.09375,-195.6875,0.0,0.0,0.0
86,1695814202260,-2.0,-0.8203125,-0.20117188,-0.1875,-253.1875,-222.125,-76.1875,22.6875,-13.25
87,1695814202262,-1.2519531,-0.5546875,-0.21972656,55.78125,-128.90625,-228.21875,0.0,0.0,0.0
88,1695814202312,-0.0087890625,-0.21875,-0.33789062,136.21875,-40.59375,-72.09375,0.0,0.0,0.0
89,1695814202333,1.09375,1.1074219,-0.37109375,24.21875,143.84375,74.8125,0.0,0.0,0.0
90,1695814202383,1.0195312,0.64746094,-0.5566406,-84.5625,248.53125,157.40625,0.0,0.0,0.0
91,1695814202434,-0.6503906,0.7011719,0.14746094,-28.15625,79.6875,179.5625,0.0,0.0,0.0
92,1695814202484,-2.0,-0.7060547,0.4375,-33.65625,-42.1875,19.75,0.0,0.0,0.0
93,1695814202508,-2.0,-0.0107421875,2.0,-299.6875,221.78125,25.25,0.0,0.0,0.0
94,1695814202534,-1.3740234,-0.9003906,1.0644531,-6.125,116.6875,-95.0625,0.0,0.0,0.0
95,1695814202584,-0.48242188,0.6425781,-0.78808594,-136.6875,119.4375,285.875,0.0,0.0,0.0
96,1695814202659,-2.0,-1.3544922,-1.6123047,131.5,43.1875,233.625,0.0,0.0,0.0
97,1695814202661,-1.5634766,0.11425781,0.37597656,19.875,109.71875,100.03125,0.0,0.0,0.0
98,1695814202709,-1.4316406,0.025390625,-0.021484375,-13.125,122.59375,151.0,0.0,0.0,0.0
99,1695814202733,-0.6230469,-1.5898438,0.62402344,-37.84375,21.53125,80.625,-92.6875,30.625,-44.4375
100,1695814202782,0.6972656,-0.9873047,-0.13183594,3.65625,25.5,-131.125,0.0,0.0,0.0
101,1695814202886,-0.8066406,0.7236328,0.7109375,19.34375,-166.53125,-161.09375,0.0,0.0,0.0
102,1695814202889,-1.6269531,-0.28222656,-0.43652344,191.4375,-222.4375,-154.6875,0.0,0.0,0.0
103,1695814202908,-2.0,-0.2626953,-0.375,203.34375,-315.1875,-138.0625,0.0,0.0,0.0
104,1695814202933,-2.0,-0.921875,0.24023438,12.0,-187.75,-211.1875,0.0,0.0,0.0
105,1695814202984,-0.9453125,-0.7861328,-0.43847656,53.34375,-122.4375,-218.28125,0.0,0.0,0.0
106,1695814203033,0.24707031,0.32617188,-0.2890625,137.875,-22.0625,-76.6875,0.0,0.0,0.0
107,1695814203058,0.984375,1.1787109,-0.64941406,17.0625,164.28125,96.25,0.0,0.0,0.0
108,1695814203107,0.8886719,1.734375,-0.43359375,-183.375,203.84375,159.84375,0.0,0.0,0.0
109,1695814203132,-0.63183594,0.22949219,0.38183594,43.8125,66.9375,164.53125,0.0,0.0,0.0
110,1695814203184,-2.0,-1.1542969,-1.3701172,-522.0,122.0,-128.625,0.0,0.0,0.0
111,1695814203233,-2.0,-0.6904297,-2.0,-43.90625,-254.71875,70.59375,-83.375,13.6875,-28.5625
112,1695814203258,0.9658203,0.6660156,-0.9375,-184.78125,-29.75,-65.5625,0.0,0.0,0.0
113,1695814203307,-1.703125,0.10058594,-0.17089844,117.53125,-7.875,385.25,0.0,0.0,0.0
114,1695814203333,-0.54589844,-2.0,0.7207031,35.5625,167.21875,150.375,0.0,0.0,0.0
115,1695814203386,-1.2441406,0.016601562,0.3642578,83.71875,182.71875,168.9375,0.0,0.0,0.0
116,1695814203433,-0.71191406,-0.45703125,0.7470703,-19.375,95.875,129.25,0.0,0.0,0.0
117,1695814203458,-0.48828125,-2.0,0.39941406,-24.3125,-8.125,3.40625,0.0,0.0,0.0
118,1695814203508,0.14941406,0.115234375,0.46679688,24.34375,-41.21875,-144.5,0.0,0.0,0.0
119,1695814203532,-0.44628906,0.16601562,0.4091797,50.34375,-163.78125,-135.875,0.0,0.0,0.0
120,1695814203583,-2.0,-0.8046875,-0.9111328,172.59375,-277.96875,-202.78125,0.0,0.0,0.0
121,1695814203634,-2.0,0.32714844,0.001953125,39.21875,-344.0625,-258.1875,0.0,0.0,0.0
122,1695814203657,-2.0,-0.26464844,0.31640625,51.5625,-196.96875,-236.59375,0.0,0.0,0.0
123,1695814203707,-0.7402344,-1.0986328,-0.44433594,103.125,-71.25,-169.09375,0.0,0.0,0.0
124,1695814203734,0.7207031,0.859375,-0.23144531,113.8125,10.25,-27.96875,-72.75,20.4375,-4.4375
125,1695814203783,0.86035156,0.5527344,-0.63183594,-17.90625,186.5,166.625,0.0,0.0,0.0
126,1695814203833,1.0146484,1.9541016,-0.20605469,-72.34375,85.6875,214.03125,0.0,0.0,0.0
127,1695814203858,-0.80566406,0.109375,0.26367188,71.28125,85.25,92.9375,0.0,0.0,0.0
128,1695814203907,-2.0,-1.4228516,-1.9921875,-629.78125,256.875,-194.71875,0.0,0.0,0.0
129,1695814203931,-2.0,-1.7666016,-1.6962891,-165.0625,-200.8125,-101.40625,0.0,0.0,0.0
130,1695814203983,1.4111328,1.71875,-0.5214844,-73.0,93.5625,16.9375,0.0,0.0,0.0
131,1695814204034,-2.0,-0.26171875,0.8671875,133.28125,69.0625,359.71875,0.0,0.0,0.0
132,1695814204058,-0.091796875,-1.359375,0.6279297,-36.28125,121.4375,129.6875,0.0,0.0,0.0
133,1695814204108,-1.3974609,0.25390625,0.4375,99.53125,199.03125,186.9375,0.0,0.0,0.0
134,1695814204133,-0.4580078,-0.875,1.2353516,13.96875,68.34375,101.65625,0.0,0.0,0.0
135,1695814204183,-0.07421875,-1.9472656,-0.034179688,-31.5,3.65625,-37.5625,0.0,0.0,0.0
136,1695814204233,-0.0087890625,0.103515625,0.75390625,90.4375,-71.84375,-151.6875,-93.75,29.75,-45.9375
137,1695814204257,-0.64453125,0.20703125,0.49316406,62.375,-157.59375,-140.625,0.0,0.0,0.0
138,1695814204309,-2.0,-0.9433594,-1.15625,249.125,-292.625,-208.28125,0.0,0.0,0.0
139,1695814204357,-2.0,0.11621094,-0.31640625,10.40625,-319.46875,-227.4375,0.0,0.0,0.0
140,1695814204383,-2.0,0.28320312,0.17382812,-2.34375,-181.28125,-238.53125,0.0,0.0,0.0
141,1695814204432,-0.62402344,-1.1591797,-0.265625,100.75,-74.28125,-134.34375,0.0,0.0,0.0
142,1695814204458,0.8310547,0.78222656,-0.42285156,145.8125,36.71875,-18.09375,0.0,0.0,0.0
143,1695814204509,0.84472656,0.5527344,-0.45117188,-65.125,182.84375,127.90625,0.0,0.0,0.0
144,1695814204532,0.23144531,1.5380859,-0.23925781,-32.0,117.90625,206.65625,0.0,0.0,0.0
145,1695814204582,-0.8359375,-0.17773438,0.80566406,107.65625,34.03125,72.375,0.0,0.0,0.0
146,1695814204633,-0.70214844,-0.9609375,-2.0,-883.875,173.5625,-210.40625,0.0,0.0,0.0
147,1695814204657,-2.0,-2.0,-2.0,-59.78125,-183.1875,-129.34375,0.0,0.0,0.0
148,1695814204708,1.4238281,1.3759766,-0.42285156,-78.375,120.78125,49.53125,0.0,0.0,0.0
149,1695814204732,-2.0,0.30273438,0.5810547,142.8125,55.84375,371.4375,-93.3125,17.875,-38.75
150,1695814204782,-0.3642578,-1.6503906,1.1777344,-30.21875,114.125,102.28125,0.0,0.0,0.0
151,1695814204833,-1.4326172,0.087890625,0.09667969,69.3125,177.15625,184.1875,0.0,0.0,0.0
152,1695814204858,-0.265625,-0.7763672,1.2578125,-18.9375,45.28125,108.1875,0.0,0.0,0.0
153,1695814204908,0.19433594,-1.7568359,0.34765625,-65.4375,8.65625,-42.9375,0.0,0.0,0.0
154,1695814204932,-0.35839844,0.001953125,0.62597656,51.125,-73.8125,-134.21875,0.0,0.0,0.0
155,1695814204984,-0.37597656,0.17871094,0.18652344,53.8125,-161.21875,-125.25,0.0,0.0,0.0
156,1695814205033,-2.0,-0.90234375,-0.6328125,210.875,-291.28125,-204.4375,0.0,0.0,0.0
157,1695814205058,-2.0,-0.25195312,-0.1875,4.25,-275.34375,-297.5,0.0,0.0,0.0
158,1695814205109,-2.0,0.17285156,0.16796875,66.625,-184.65625,-273.5,0.0,0.0,0.0
159,1695814205134,-0.76464844,-1.1767578,-0.16308594,116.125,-43.09375,-137.46875,0.0,0.0,0.0
160,1695814205183,0.57128906,0.7988281,-0.45703125,158.25,16.84375,-25.09375,0.0,0.0,0.0
161,1695814205233,0.69140625,1.2041016,-0.52441406,-31.8125,167.46875,117.71875,-77.875,36.3125,-6.5
162,1695814205260,0.75097656,1.2392578,-0.6201172,-80.59375,140.71875,155.0,0.0,0.0,0.0
163,1695814205334,-0.69628906,-0.43945312,1.3115234,117.0,73.53125,81.09375,0.0,0.0,0.0
164,1695814205338,-1.0957031,-0.890625,-2.0,-820.9375,127.65625,-168.03125,0.0,0.0,0.0
165,1695814205383,-2.0,-2.0,-2.0,32.75,-237.75,-43.53125,0.0,0.0,0.0
166,1695814205462,1.6904297,1.4277344,-0.7949219,-210.71875,79.09375,41.4375,0.0,0.0,0.0
167,1695814205465,-2.0,0.69628906,0.81640625,178.34375,67.84375,312.25,0.0,0.0,0.0
168,1695814205508,-0.22753906,-2.0,1.4375,-68.6875,151.0,190.15625,0.0,0.0,0.0
169,1695814205533,-1.609375,0.42285156,0.4169922,94.90625,170.40625,158.375,0.0,0.0,0.0
170,1695814205584,-0.7480469,-0.38867188,0.90527344,-50.4375,69.25,113.375,0.0,0.0,0.0
171,1695814205633,0.2783203,-2.0,0.50097656,-69.96875,17.5625,-1.125,0.0,0.0,0.0
172,1695814205664,-0.23144531,0.119140625,0.6621094,38.0625,-73.875,-157.0625,0.0,0.0,0.0
173,1695814205708,-0.56933594,0.18359375,0.4267578,39.59375,-155.90625,-133.0625,0.0,0.0,0.0
174,1695814205732,-2.0,-1.3349609,-0.5341797,226.5,-343.75,-166.15625,-92.125,14.875,-43.125
175,1695814205832,-2.0,0.19824219,-0.27539062,3.9375,-320.75,-250.9375,0.0,0.0,0.0
176,1695814205884,-2.0,-0.09277344,0.29003906,73.96875,-159.4375,-263.0625,0.0,0.0,0.0
177,1695814205886,-0.6484375,-0.95703125,-0.39746094,114.5625,-53.40625,-141.9375,0.0,0.0,0.0
178,1695814205908,0.5566406,0.8828125,-0.39453125,153.96875,-1.53125,-43.71875,0.0,0.0,0.0
179,1695814205932,0.99316406,0.71484375,-0.4169922,-27.65625,198.46875,112.40625,0.0,0.0,0.0
180,1695814205983,0.4609375,1.5253906,-0.28320312,-89.5,164.15625,176.75,0.0,0.0,0.0
181,1695814206033,-0.7050781,-0.7128906,0.83984375,194.6875,22.4375,75.25,0.0,0.0,0.0
182,1695814206059,-1.5478516,-1.1435547,-1.7509766,-893.3125,128.59375,-183.59375,0.0,0.0,0.0
183,1695814206109,-1.6904297,-1.6220703,-0.74902344,136.8125,-24.90625,10.84375,0.0,0.0,0.0
184,1695814206132,-0.30859375,1.4189453,-0.4345703,-204.96875,155.125,148.46875,0.0,0.0,0.0
185,1695814206184,-2.0,-0.34765625,-0.8730469,114.3125,99.90625,335.8125,0.0,0.0,0.0
186,1695814206210,-1.2060547,-1.6455078,1.0888672,-62.40625,82.1875,144.53125,0.0,0.0,0.0
187,1695814206258,-1.2373047,0.35058594,0.63671875,113.09375,134.03125,165.4375,-96.4375,20.875,-48.1875
188,1695814206307,-0.2783203,-0.5908203,0.69628906,-82.21875,77.6875,105.8125,0.0,0.0,0.0
189,1695814206332,0.03515625,-2.0,0.37695312,63.71875,49.59375,-15.09375,0.0,0.0,0.0
190,1695814206383,-0.71972656,0.5957031,0.8466797,-3.25,-101.5625,-137.78125,0.0,0.0,0.0
191,1695814206434,-0.53125,0.13671875,0.39160156,108.375,-147.46875,-97.96875,0.0,0.0,0.0
192,1695814206458,-2.0,-1.5283203,-0.7910156,177.59375,-345.84375,-175.90625,0.0,0.0,0.0
193,1695814206507,-2.0,-0.28710938,-0.33398438,-14.0,-289.1875,-297.25,0.0,0.0,0.0
194,1695814206534,-2.0,0.09472656,-0.40527344,-13.375,-157.25,-299.21875,0.0,0.0,0.0
195,1695814206583,-0.4013672,-0.94628906,-0.17285156,133.09375,-86.3125,-154.5625,0.0,0.0,0.0
196,1695814206633,0.9892578,1.0097656,-0.41015625,134.1875,58.21875,-4.15625,0.0,0.0,0.0
197,1695814206658,0.81933594,0.81933594,-0.6044922,-22.34375,160.03125,124.375,0.0,0.0,0.0
198,1695814206708,0.3955078,1.8808594,-0.36035156,-5.25,134.8125,193.71875,0.0,0.0,0.0
199,1695814206733,-0.6171875,-0.50683594,1.1875,114.5625,29.78125,78.90625,-83.125,20.875,-34.125
200,1695814206787,-1.2333984,-0.98828125,-1.1757812,-955.28125,147.9375,-207.0,0.0,0.0,0.0
201,1695814206807,-1.1835938,-0.74316406,-0.029296875,70.96875,31.25,-103.03125,0.0,0.0,0.0
202,1695814206858,0.9921875,1.7607422,-0.7050781,-138.03125,210.875,203.90625,0.0,0.0,0.0
203,1695814206908,-2.0,-0.97558594,-2.0,216.71875,143.28125,270.375,0.0,0.0,0.0
204,1695814206933,-1.2197266,0.15625,0.21582031,20.96875,107.15625,76.46875,0.0,0.0,0.0
205,1695814206984,-1.3798828,0.051757812,0.080078125,6.46875,184.625,141.28125,0.0,0.0,0.0
206,1695814207008,-0.5732422,-1.1357422,0.6953125,-46.9375,32.15625,76.40625,0.0,0.0,0.0
207,1695814207057,0.41503906,-1.3964844,0.3251953,-55.5625,15.65625,-99.375,0.0,0.0,0.0
208,1695814207107,-0.49121094,0.2919922,0.74316406,44.78125,-115.3125,-158.46875,0.0,0.0,0.0
209,1695814207131,-0.7626953,-0.18164062,0.34570312,115.65625,-166.28125,-150.78125,0.0,0.0,0.0
210,1695814207183,-2.0,-1.3134766,-0.75390625,109.90625,-324.1875,-192.34375,0.0,0.0,0.0
211,1695814207209,-2.0,-0.26953125,0.3466797,-48.53125,-291.75,-267.21875,0.0,0.0,0.0
212,1695814207258,-2.0,0.07324219,-0.16308594,41.375,-120.8125,-286.5625,-78.75,12.9375,-18.375
213,1695814207308,-0.2763672,-0.640625,-0.27441406,164.65625,-50.4375,-89.96875,0.0,0.0,0.0
214,1695814207333,0.6582031,0.88964844,-0.30078125,97.59375,94.46875,84.03125,0.0,0.0,0.0
215,1695814207383,1.0234375,0.9326172,-0.5185547,-78.25,177.53125,141.15625,0.0,0.0,0.0
216,1695814207409,-0.47460938,0.65234375,-0.1328125,-22.0,136.75,203.28125,0.0,0.0,0.0
217,1695814207457,-0.6123047,-0.92285156,1.3955078,34.21875,32.34375,-9.71875,0.0,0.0,0.0
218,1695814207508,-1.5527344,-0.27539062,0.9003906,-733.78125,238.6875,-50.5625,0.0,0.0,0.0
219,1695814207537,-1.3447266,-0.24804688,0.9707031,0.46875,71.75,-106.09375,0.0,0.0,0.0
220,1695814207585,-0.16601562,1.0830078,-0.83203125,-168.84375,141.21875,273.1875,0.0,0.0,0.0
221,1695814207608,-2.0,-2.0,-2.0,65.09375,149.03125,215.625,0.0,0.0,0.0
222,1695814207658,-1.9755859,0.15820312,0.32714844,80.84375,110.65625,119.125,0.0,0.0,0.0
223,1695814207708,-1.6220703,0.48828125,0.11035156,-2.28125,89.65625,166.125,0.0,0.0,0.0
224,1695814207733,-0.21386719,-0.9873047,0.76464844,-72.09375,56.0625,94.03125,-97.8125,19.5625,-54.1875
225,1695814207783,0.53222656,-1.5888672,-0.16992188,-14.1875,-5.09375,-93.59375,0.0,0.0,0.0
226,1695814207807,-0.6894531,0.6308594,0.9121094,20.0625,-163.09375,-148.625,0.0,0.0,0.0
227,1695814207910,-0.9169922,-0.5625,0.026367188,158.375,-168.46875,-131.59375,0.0,0.0,0.0
228,1695814207912,-2.0,-1.6611328,-0.45117188,320.40625,-289.8125,-164.5,0.0,0.0,0.0
229,1695814207933,-2.0,-0.9902344,0.041015625,-56.84375,-275.28125,-220.15625,0.0,0.0,0.0
230,1695814208009,-1.4980469,-0.42578125,-0.25195312,12.5625,-133.5625,-253.0,0.0,0.0,0.0
231,1695814208013,-0.0859375,-0.421875,-0.26464844,130.21875,-23.5,-87.59375,0.0,0.0,0.0
232,1695814208058,0.7060547,0.95410156,-0.48828125,144.6875,104.28125,32.75,0.0,0.0,0.0
233,1695814208109,1.1494141,0.7529297,-0.69921875,-74.53125,221.53125,96.84375,0.0,0.0,0.0
234,1695814208133,-0.46777344,0.9140625,0.28710938,-0.4375,67.4375,184.1875,0.0,0.0,0.0
235,1695814208184,-0.5019531,-0.54785156,1.2363281,-1.40625,6.75,-45.4375,0.0,0.0,0.0
236,1695814208208,-2.0,0.57128906,1.6884766,-601.21875,233.375,21.46875,0.0,0.0,0.0
237,1695814208259,-0.8359375,-0.31347656,0.46191406,-103.34375,34.15625,-47.5,-87.625,6.625,-40.4375
238,1695814208308,-1.0322266,1.0195312,-0.6464844,-152.96875,97.03125,300.09375,0.0,0.0,0.0
239,1695814208332,-2.0,-1.9414062,-1.3613281,187.125,24.875,244.1875,0.0,0.0,0.0
240,1695814208383,-1.640625,-0.0078125,0.3984375,58.75,133.90625,108.0625,0.0,0.0,0.0
241,1695814208409,-1.3779297,0.24023438,-0.091796875,-20.28125,113.28125,148.96875,0.0,0.0,0.0
242,1695814208458,-0.6464844,-1.4023438,0.7246094,-60.875,26.84375,77.3125,0.0,0.0,0.0
243,1695814208508,0.43066406,-0.95996094,-0.091796875,-22.90625,16.34375,-113.59375,0.0,0.0,0.0
244,1695814208532,-0.62402344,0.3720703,0.7832031,8.53125,-151.1875,-145.34375,0.0,0.0,0.0
245,1695814208584,-1.0458984,-0.45996094,-0.16308594,142.875,-187.46875,-125.1875,0.0,0.0,0.0
246,1695814208608,-2.0,-1.5732422,-0.35253906,301.5625,-273.9375,-144.4375,0.0,0.0,0.0
247,1695814208658,-2.0,-0.51171875,-0.16992188,-45.78125,-267.96875,-208.34375,0.0,0.0,0.0
248,1695814208735,-1.4423828,-0.4453125,-0.34765625,59.96875,-146.875,-271.4375,0.0,0.0,0.0
249,1695814208738,0.0009765625,-0.018554688,-0.2939453,141.03125,-40.65625,-105.78125,-77.125,15.8125,-8.625
250,1695814208794,1.0361328,1.4541016,-0.5576172,31.40625,161.59375,47.46875,0.0,0.0,0.0
251,1695814208832,0.85546875,0.8232422,-0.3671875,-121.34375,230.34375,158.75,0.0,0.0,0.0
252,1695814208860,-0.47460938,0.6425781,0.032226562,-3.875,73.65625,182.90625,0.0,0.0,0.0
253,1695814208908,-2.0,-0.5966797,0.86035156,-9.84375,-84.65625,-25.34375,0.0,0.0,0.0
254,1695814208932,-2.0,-0.8027344,2.0,-525.40625,256.875,26.96875,0.0,0.0,0.0
255,1695814208986,-1.5722656,-1.046875,1.2490234,3.34375,198.34375,-85.15625,0.0,0.0,0.0
256,1695814209007,-0.036132812,1.5800781,-0.6542969,-171.21875,223.6875,258.15625,0.0,0.0,0.0
257,1695814209059,-2.0,-1.3994141,-1.7431641,104.90625,83.3125,240.34375,0.0,0.0,0.0
258,1695814209107,-1.7626953,0.27929688,0.35253906,39.09375,82.1875,74.625,0.0,0.0,0.0
259,1695814209132,-1.2128906,-0.13378906,0.037109375,-32.4375,102.59375,152.625,0.0,0.0,0.0
260,1695814209184,-0.2607422,-1.3632812,0.6386719,-76.25,74.5625,101.96875,0.0,0.0,0.0
261,1695814209208,0.5527344,-1.2275391,-0.107421875,-10.34375,45.875,-99.6875,0.0,0.0,0.0
262,1695814209260,-0.67285156,0.65625,0.89941406,41.5625,-143.8125,-131.96875,-96.875,17.875,-63.625
263,1695814209308,-1.0820312,-0.23339844,-0.4189453,111.1875,-183.96875,-118.25,0.0,0.0,0.0
264,1695814209358,-2.0,-1.7470703,-0.5048828,262.4375,-241.65625,-172.25,0.0,0.0,0.0
265,1695814209383,-2.0,-0.26757812,0.025390625,-100.78125,-265.625,-217.59375,0.0,0.0,0.0
266,1695814209434,-1.2412109,-0.12597656,-0.13671875,44.59375,-151.125,-270.78125,0.0,0.0,0.0
267,1695814209459,-0.20410156,-0.39257812,-0.27539062,163.6875,-53.125,-109.75,0.0,0.0,0.0
268,1695814209508,1.1044922,1.1953125,-0.69921875,133.96875,101.5,41.5,0.0,0.0,0.0
269,1695814209533,1.1669922,0.83691406,-0.7314453,-92.4375,224.03125,140.25,0.0,0.0,0.0
270,1695814209584,-0.5048828,0.7373047,-0.013671875,-2.40625,115.84375,164.78125,0.0,0.0,0.0
271,1695814209607,-2.0,-0.5234375,1.1210938,-197.40625,-39.5625,-67.875,0.0,0.0,0.0
272,1695814209659,-2.0,2.0,2.0,5.78125,95.6875,226.90625,0.0,0.0,0.0
273,1695814209734,-1.3408203,-1.3261719,1.5244141,-288.71875,69.125,-111.53125,0.0,0.0,0.0
274,1695814209737,-0.109375,0.46289062,-1.3896484,-153.03125,165.34375,353.8125,-96.875,-1.9375,-51.9375
275,1695814209783,-2.0,-2.0,-0.8339844,220.3125,41.0625,207.125,0.0,0.0,0.0
276,1695814209808,-1.5292969,0.2548828,0.5703125,70.34375,146.15625,96.125,0.0,0.0,0.0
277,1695814209858,-1.4228516,0.030273438,-0.052734375,-40.78125,125.03125,147.375,0.0,0.0,0.0
278,1695814209934,-0.8076172,-1.7148438,0.6582031,-53.84375,47.28125,70.46875,0.0,0.0,0.0
279,1695814209938,0.6386719,-0.73535156,-0.029296875,-12.53125,-6.90625,-119.15625,0.0,0.0,0.0
280,1695814209986,-0.6953125,0.6425781,0.7861328,12.6875,-167.625,-136.5,0.0,0.0,0.0
281,1695814210008,-1.5429688,-0.41210938,-0.34960938,155.9375,-255.21875,-133.625,0.0,0.0,0.0
282,1695814210059,-2.0,-0.4736328,-0.53027344,134.75,-240.1875,-193.3125,0.0,0.0,0.0
283,1695814210109,-2.0,-0.63964844,0.016601562,-19.25,-181.65625,-224.5625,0.0,0.0,0.0
284,1695814210133,-0.9189453,-0.7285156,-0.27148438,52.96875,-116.46875,-219.9375,0.0,0.0,0.0
285,1695814210183,0.09277344,0.39257812,-0.29003906,164.0625,-33.40625,-86.6875,0.0,0.0,0.0
286,1695814210210,1.0839844,1.4082031,-0.36914062,38.4375,156.125,76.9375,0.0,0.0,0.0
287,1695814210282,0.6640625,1.1962891,-0.45507812,-142.46875,208.40625,159.34375,-80.125,25.25,-29.4375
288,1695814210307,-0.6611328,0.16210938,0.21386719,129.875,44.1875,139.5625,0.0,0.0,0.0
289,1695814210332,-2.0,-0.38378906,-0.7734375,-634.78125,53.9375,-128.1875,0.0,0.0,0.0
290,1695814210382,-2.0,-2.0,-2.0,-24.4375,-194.0,-76.375,0.0,0.0,0.0
291,1695814210408,1.0205078,1.0263672,-0.8496094,-223.28125,-7.8125,-11.84375,0.0,0.0,0.0
292,1695814210458,-2.0,-0.58496094,1.2558594,199.75,-15.15625,352.03125,0.0,0.0,0.0
293,1695814210509,-0.44335938,-1.7451172,0.93652344,-62.09375,112.59375,179.125,0.0,0.0,0.0
294,1695814210533,-1.2978516,-0.068359375,0.4970703,81.65625,177.71875,167.46875,0.0,0.0,0.0
295,1695814210582,-0.6035156,-0.390625,0.43554688,-42.1875,124.0,126.21875,0.0,0.0,0.0
296,1695814210607,-0.40039062,-2.0,0.3359375,-26.9375,28.65625,21.96875,0.0,0.0,0.0
297,1695814210658,0.13476562,-0.17285156,0.29589844,27.6875,-34.0625,-132.53125,0.0,0.0,0.0
298,1695814210708,-0.59277344,0.4189453,0.30566406,8.96875,-158.71875,-139.53125,0.0,0.0,0.0
299,1695814210734,-2.0,-1.1347656,-0.40039062,267.9375,-307.09375,-180.0625,-94.375,15.8125,-45.9375
300,1695814210783,-2.0,0.13574219,-0.15429688,20.84375,-293.40625,-282.4375,0.0,0.0,0.0
301,1695814210808,-2.0,0.06640625,0.3154297,37.71875,-175.0,-250.5625,0.0,0.0,0.0
302,1695814210884,-0.8691406,-1.3115234,-0.38671875,119.375,-47.8125,-143.5625,0.0,0.0,0.0
303,1695814210908,0.609375,0.63964844,-0.3798828,148.96875,-13.9375,-33.84375,0.0,0.0,0.0
304,1695814211009,1.2285156,1.0878906,-0.4501953,-16.3125,190.78125,122.90625,0.0,0.0,0.0
305,1695814211012,0.35058594,1.1884766,-0.14550781,-138.5625,129.1875,154.28125,0.0,0.0,0.0
306,1695814211014,-0.6582031,-0.65527344,0.46875,136.46875,42.21875,50.28125,0.0,0.0,0.0
307,1695814211058,-1.7421875,-0.6269531,0.6386719,-713.875,190.0625,-55.125,0.0,0.0,0.0
308,1695814211134,-2.0,-2.0,-1.2207031,64.125,28.125,-108.34375,0.0,0.0,0.0
309,1695814211136,0.75683594,1.2900391,-0.94433594,-150.34375,93.625,175.15625,0.0,0.0,0.0
310,1695814211211,-2.0,-0.51464844,-1.1416016,118.625,84.8125,323.09375,0.0,0.0,0.0
311,1695814211214,-0.984375,-0.6347656,0.3486328,-27.46875,91.34375,98.125,0.0,0.0,0.0
312,1695814211258,-1.5019531,0.5859375,0.3310547,77.5,149.9375,157.875,-95.6875,12.625,-50.0
313,1695814211307,-0.7060547,-0.6591797,0.5595703,-38.09375,83.34375,120.90625,0.0,0.0,0.0
314,1695814211362,0.08691406,-2.0,0.48828125,-18.25,29.53125,-45.90625,0.0,0.0,0.0
315,1695814211409,-0.4345703,0.28808594,0.7050781,67.625,-106.71875,-157.71875,0.0,0.0,0.0
316,1695814211411,-0.7392578,0.15820312,-0.0068359375,72.0625,-178.1875,-146.0,0.0,0.0,0.0
317,1695814211458,-2.0,-1.4296875,-0.4609375,314.3125,-250.5,-195.28125,0.0,0.0,0.0
318,1695814211535,-2.0,-0.17285156,-0.06640625,-30.15625,-266.875,-218.09375,0.0,0.0,0.0
319,1695814211537,-1.5830078,-0.3515625,0.10644531,23.4375,-140.875,-247.09375,0.0,0.0,0.0
320,1695814211609,-0.5673828,-0.859375,-0.32226562,155.625,-64.78125,-93.15625,0.0,0.0,0.0
321,1695814211611,0.96777344,1.1699219,-0.41503906,134.5,58.40625,20.0625,0.0,0.0,0.0
322,1695814211659,1.2900391,0.54785156,-0.63183594,-104.75,220.3125,149.65625,0.0,0.0,0.0
323,1695814211708,-0.19921875,0.93359375,0.4501953,-57.3125,42.78125,128.9375,0.0,0.0,0.0
324,1695814211733,-0.5888672,-0.6845703,-0.2265625,-141.9375,63.15625,-42.4375,-84.125,15.1875,-37.875
325,1695814211783,-2.0,-0.3046875,0.35742188,-55.5625,-109.5,49.1875,0.0,0.0,0.0
326,1695814211808,0.4267578,0.9042969,-0.0029296875,-173.0,-57.09375,-36.15625,0.0,0.0,0.0
327,1695814211857,-1.0292969,-0.064453125,-0.8173828,13.09375,-0.125,321.8125,0.0,0.0,0.0
328,1695814211909,-2.0,-2.0,0.5410156,77.375,112.46875,162.21875,0.0,0.0,0.0
329,1695814211934,-1.6279297,0.2529297,0.41503906,112.09375,138.34375,135.71875,0.0,0.0,0.0
330,1695814212009,-1.3847656,0.024414062,-0.16894531,-35.46875,111.625,155.5,0.0,0.0,0.0
331,1695814212011,-0.67871094,-1.6005859,1.0166016,-32.96875,56.6875,68.34375,0.0,0.0,0.0
332,1695814212058,0.63964844,-0.8457031,-0.01953125,-1.65625,-14.96875,-122.875,0.0,0.0,0.0
333,1695814212109,-0.8222656,0.3984375,0.8798828,3.84375,-167.6875,-145.59375,0.0,0.0,0.0
334,1695814212135,-1.8642578,-0.36132812,-0.48828125,139.4375,-248.96875,-171.03125,0.0,0.0,0.0
335,1695814212183,-2.0,-0.029296875,0.03125,7.5625,-272.34375,-221.9375,0.0,0.0,0.0
336,1695814212208,-2.0,-0.6376953,0.13574219,44.34375,-147.59375,-226.8125,0.0,0.0,0.0
337,1695814212258,-0.7285156,-1.0439453,-0.359375,21.34375,-54.34375,-168.03125,-78.0,10.5625,-18.375
338,1695814212336,0.47460938,0.36914062,-0.29785156,112.96875,18.53125,-55.1875,0.0,0.0,0.0
339,1695814212339,0.64453125,0.7890625,-0.5078125,5.34375,196.8125,104.78125,0.0,0.0,0.0
340,1695814212383,0.37402344,1.3828125,-0.2890625,-31.9375,154.90625,170.34375,0.0,0.0,0.0
341,1695814212408,-0.6923828,-0.5136719,0.75,43.3125,60.15625,96.1875,0.0,0.0,0.0
342,1695814212458,-1.0546875,-0.0703125,0.33691406,-618.125,190.34375,-79.53125,0.0,0.0,0.0
343,1695814212507,-2.0,-2.0,-0.9785156,104.40625,25.1875,-54.15625,0.0,0.0,0.0
344,1695814212536,0.5996094,1.1767578,-0.72265625,-241.90625,110.28125,100.21875,0.0,0.0,0.0
345,1695814212607,-2.0,0.4248047,0.82910156,187.65625,47.03125,328.0625,0.0,0.0,0.0
346,1695814212609,-0.54785156,-1.2900391,0.76660156,-89.375,101.375,116.5625,0.0,0.0,0.0
347,1695814212658,-1.265625,0.078125,0.29492188,61.9375,176.0,152.03125,0.0,0.0,0.0
348,1695814212708,-0.6308594,-0.6982422,0.5517578,-39.125,108.6875,100.15625,0.0,0.0,0.0
349,1695814212732,-0.20703125,-1.8808594,0.08496094,-73.875,-5.375,-28.65625,-96.625,22.5625,-52.5625
350,1695814212783,-0.0234375,0.041992188,0.6298828,46.0,-76.0,-161.03125,0.0,0.0,0.0
351,1695814212807,-1.4365234,-0.03515625,0.13574219,-0.1875,-194.28125,-186.34375,0.0,0.0,0.0
352,1695814212882,-2.0,-0.19824219,-0.51464844,205.4375,-270.71875,-221.6875,0.0,0.0,0.0
353,1695814212933,-2.0,-0.08984375,-0.23632812,-16.8125,-271.4375,-183.90625,0.0,0.0,0.0
354,1695814212934,-1.546875,-0.78222656,-0.14746094,29.53125,-198.625,-211.75,0.0,0.0,0.0
355,1695814212984,-0.7324219,-0.69921875,-0.103515625,112.78125,-83.4375,-57.75,0.0,0.0,0.0
356,1695814213007,0.7294922,0.75097656,-0.17285156,124.625,-1.34375,32.34375,0.0,0.0,0.0
357,1695814213058,1.6074219,0.62890625,-0.52734375,-98.21875,180.40625,155.8125,0.0,0.0,0.0
358,1695814213108,-0.24707031,0.48535156,-0.068359375,-142.15625,79.15625,145.1875,0.0,0.0,0.0
359,1695814213131,-0.85546875,-1.5576172,-0.21386719,46.5625,76.9375,-7.21875,0.0,0.0,0.0
360,1695814213182,-2.0,0.58984375,1.0849609,-11.90625,-109.21875,-35.59375,0.0,0.0,0.0
361,1695814213231,0.4423828,1.8515625,0.19238281,-96.15625,62.375,91.40625,0.0,0.0,0.0
362,1695814213257,-2.0,-0.5566406,-0.26171875,-25.96875,2.5,312.0625,-93.875,3.9375,-50.75
363,1695814213358,-0.82910156,-2.0,0.5136719,-89.0,93.0,190.46875,0.0,0.0,0.0
364,1695814213360,-1.6542969,0.07519531,0.16015625,123.46875,163.1875,158.125,0.0,0.0,0.0
365,1695814213384,-1.1728516,-0.23828125,0.27539062,-23.4375,137.5625,155.1875,0.0,0.0,0.0
366,1695814213432,-0.703125,-1.2402344,1.3320312,-23.03125,43.4375,73.15625,0.0,0.0,0.0
367,1695814213457,0.56640625,-1.1416016,0.22558594,-29.0625,-2.34375,-125.125,0.0,0.0,0.0
368,1695814213507,-0.6191406,-0.013671875,0.6152344,45.28125,-171.03125,-170.25,0.0,0.0,0.0
369,1695814213585,-1.5507812,0.091796875,-0.3232422,145.25,-217.59375,-203.1875,0.0,0.0,0.0
370,1695814213588,-2.0,-0.21191406,-0.30566406,181.625,-306.46875,-178.65625,0.0,0.0,0.0
371,1695814213608,-2.0,-1.1630859,0.5058594,-3.1875,-186.125,-206.875,0.0,0.0,0.0
372,1695814213659,-0.796875,-1.3554688,-0.06933594,49.46875,-84.5,-219.8125,0.0,0.0,0.0
373,1695814213708,0.35546875,-0.0009765625,-0.15039062,169.84375,-29.125,-40.0,0.0,0.0,0.0
374,1695814213733,0.7236328,0.8046875,-0.11816406,136.15625,124.25,84.03125,-73.9375,27.5,-4.5625
375,1695814213809,0.8232422,0.66015625,-0.48535156,-110.625,210.9375,130.0625,0.0,0.0,0.0
376,1695814213811,-0.103515625,1.0712891,-0.049804688,-117.9375,51.1875,117.78125,0.0,0.0,0.0
377,1695814213861,-0.5576172,-1.1123047,-0.38085938,-78.3125,156.46875,10.375,0.0,0.0,0.0
378,1695814213910,-2.0,-1.7177734,-2.0,-122.75,-45.59375,-37.125,0.0,0.0,0.0
379,1695814213932,1.4736328,0.92285156,0.13085938,-102.96875,62.53125,-24.75,0.0,0.0,0.0
380,1695814213984,-1.4082031,0.3779297,-0.140625,95.375,-19.0625,321.8125,0.0,0.0,0.0
381,1695814214008,-1.7392578,-2.0,0.4501953,6.09375,166.3125,211.46875,0.0,0.0,0.0
382,1695814214059,-1.5498047,-0.3232422,0.43066406,91.65625,143.71875,126.875,0.0,0.0,0.0
383,1695814214108,-0.8330078,-0.21191406,-0.046875,6.46875,133.96875,95.03125,0.0,0.0,0.0
384,1695814214136,-0.64453125,-1.0878906,0.68652344,-31.5625,63.03125,52.84375,0.0,0.0,0.0
385,1695814214183,0.51171875,-0.98339844,0.123046875,30.5,-20.34375,-97.5625,0.0,0.0,0.0
386,1695814214209,-0.80566406,0.58691406,0.46679688,18.0,-173.71875,-148.5625,0.0,0.0,0.0
387,1695814214259,-2.0,-0.6904297,-0.15429688,308.03125,-168.03125,-188.75,-96.0,22.375,-38.9375
388,1695814214307,-2.0,0.15136719,-0.47558594,39.96875,-243.1875,-322.84375,0.0,0.0,0.0
389,1695814214333,-2.0,-0.48632812,0.2109375,96.59375,-171.84375,-185.5,0.0,0.0,0.0
390,1695814214383,-0.9433594,-1.0449219,-0.3701172,50.65625,-67.75,-134.28125,0.0,0.0,0.0
391,1695814214409,0.3564453,0.5986328,-0.41308594,123.65625,-35.96875,-18.5625,0.0,0.0,0.0
392,1695814214458,1.3222656,1.0058594,-0.8730469,-43.34375,224.40625,135.90625,0.0,0.0,0.0
393,1695814214535,-0.0234375,1.4423828,0.16601562,-77.65625,102.34375,178.625,0.0,0.0,0.0
394,1695814214537,-0.47851562,-1.2822266,0.5439453,98.0625,4.1875,19.8125,0.0,0.0,0.0
395,1695814214584,-2.0,-0.11230469,2.0,-378.4375,112.90625,6.46875,0.0,0.0,0.0
396,1695814214609,-1.3017578,-0.16308594,0.24609375,-27.71875,66.09375,11.28125,0.0,0.0,0.0
397,1695814214683,-0.890625,0.78808594,-0.9716797,-41.8125,86.28125,248.65625,0.0,0.0,0.0
398,1695814214708,-2.0,-1.8291016,-1.7851562,154.9375,85.5625,226.3125,0.0,0.0,0.0
399,1695814214735,-1.7099609,-0.42773438,0.17675781,71.53125,165.8125,143.28125,-96.0,22.375,-36.8125
400,1695814214782,-1.2324219,-0.0234375,0.2841797,51.4375,147.375,148.96875,0.0,0.0,0.0
401,1695814214808,-0.7675781,-0.953125,1.1435547,-15.875,55.15625,92.625,0.0,0.0,0.0
402,1695814214859,0.35351562,-1.5927734,0.26757812,-22.40625,6.8125,-82.84375,0.0,0.0,0.0
403,1695814214908,-0.8066406,0.103515625,0.86328125,45.5625,-133.1875,-170.90625,0.0,0.0,0.0
404,1695814214933,-1.5673828,-0.072265625,-0.15429688,100.375,-213.875,-149.78125,0.0,0.0,0.0
405,1695814214981,-2.0,0.107421875,-0.3701172,175.03125,-294.15625,-161.34375,0.0,0.0,0.0
406,1695814215008,-2.0,-0.40820312,-0.0087890625,-112.375,-203.625,-174.875,0.0,0.0,0.0
407,1695814215058,-1.1582031,-0.82128906,-0.07324219,48.875,-133.125,-216.4375,0.0,0.0,0.0
408,1695814215085,-0.24511719,-0.2919922,-0.13769531,122.125,-44.375,-108.90625,0.0,0.0,0.0
409,1695814215132,1.0419922,1.2363281,-0.30273438,116.875,102.34375,28.375,0.0,0.0,0.0
410,1695814215187,0.9013672,0.38476562,-0.5800781,-124.65625,226.78125,143.21875,0.0,0.0,0.0
411,1695814215207,-0.33203125,0.92285156,0.27148438,-47.75,2.3125,130.90625,0.0,0.0,0.0
412,1695814215256,-0.9042969,-0.53125,-0.921875,-203.8125,94.28125,-66.46875,-82.1875,21.8125,-23.4375
413,1695814215282,-0.13769531,1.1308594,1.9296875,-181.34375,176.9375,160.9375,0.0,0.0,0.0
414,1695814215332,-2.0,-2.0,-2.0,163.4375,-36.21875,-261.96875,0.0,0.0,0.0
415,1695814215384,1.2089844,0.4423828,-1.78125,-261.25,343.75,-30.15625,0.0,0.0,0.0
416,1695814215409,-2.0,1.3271484,-0.140625,123.9375,55.53125,410.625,0.0,0.0,0.0
417,1695814215460,-1.2392578,-0.82714844,0.6533203,4.0625,103.5,55.21875,0.0,0.0,0.0
418,1695814215507,-1.4716797,0.5253906,-0.005859375,-40.0625,134.5,92.21875,0.0,0.0,0.0
419,1695814215534,-0.51953125,-1.1982422,1.1513672,-50.96875,70.25,65.53125,0.0,0.0,0.0
420,1695814215582,0.44726562,-0.85546875,0.026367188,-68.125,-37.0,-99.25,0.0,0.0,0.0
421,1695814215606,-0.5957031,-0.14160156,0.734375,11.09375,-167.25,-134.0625,0.0,0.0,0.0
422,1695814215658,-0.7636719,-0.2529297,0.3251953,138.53125,-205.28125,-155.53125,0.0,0.0,0.0
423,1695814215682,-2.0,-1.5380859,-1.2773438,124.375,-375.8125,-149.0,0.0,0.0,0.0
424,1695814215732,-2.0,-0.6591797,0.77441406,25.0625,-219.1875,-182.4375,-83.5625,25.0625,-23.75
425,1695814215782,-1.5136719,0.12402344,-0.5097656,72.96875,-98.96875,-226.34375,0.0,0.0,0.0
426,1695814215806,0.13574219,-0.059570312,0.18164062,80.25,-30.09375,-71.90625,0.0,0.0,0.0
427,1695814215856,0.4404297,0.5546875,-0.3154297,179.0625,104.28125,53.375,0.0,0.0,0.0
428,1695814215883,0.47265625,0.6972656,-0.77734375,-45.3125,188.65625,108.625,0.0,0.0,0.0
429,1695814215933,0.14160156,0.6621094,-0.07128906,-30.78125,53.28125,162.40625,0.0,0.0,0.0
430,1695814215984,-2.0,-1.9101562,1.4794922,-444.15625,40.75,-67.34375,0.0,0.0,0.0
431,1695814216009,-0.026367188,0.22265625,-0.4580078,-266.4375,14.3125,-57.375,0.0,0.0,0.0
432,1695814216084,-0.17578125,0.65722656,-0.9394531,-35.0,106.84375,252.0625,0.0,0.0,0.0
433,1695814216086,-2.0,-2.0,-1.234375,134.03125,32.625,272.5625,0.0,0.0,0.0
434,1695814216134,-1.5205078,0.1328125,0.013671875,39.0625,149.46875,123.21875,0.0,0.0,0.0
435,1695814216184,-1.75,-0.53222656,0.23046875,13.0,182.96875,137.125,0.0,0.0,0.0
436,1695814216208,-0.28710938,-0.6796875,0.79785156,-61.34375,72.5,91.0,0.0,0.0,0.0
437,1695814216258,0.0078125,-1.6445312,0.421875,-13.8125,18.0,-36.5625,-94.625,29.3125,-53.4375
438,1695814216283,-0.58984375,0.1171875,0.6767578,3.46875,-103.71875,-150.59375,0.0,0.0,0.0
439,1695814216334,-0.79589844,-0.07324219,-0.21582031,74.03125,-167.8125,-118.96875,0.0,0.0,0.0
440,1695814216410,-2.0,-1.2470703,-0.45410156,352.9375,-244.78125,-161.9375,0.0,0.0,0.0
441,1695814216411,-2.0,0.20605469,-0.54003906,-20.84375,-305.875,-218.21875,0.0,0.0,0.0
442,1695814216458,-1.8212891,-0.034179688,-0.080078125,-35.53125,-129.53125,-252.8125,0.0,0.0,0.0
443,1695814216485,-0.35351562,-0.7841797,-0.16210938,94.28125,-18.21875,-114.03125,0.0,0.0,0.0
444,1695814216535,1.0566406,1.2402344,-0.5361328,108.375,80.4375,33.90625,0.0,0.0,0.0
445,1695814216582,1.2568359,0.9453125,-0.5908203,-52.375,225.4375,179.25,0.0,0.0,0.0
446,1695814216607,-0.48535156,0.47851562,0.4814453,45.34375,14.28125,158.90625,0.0,0.0,0.0
447,1695814216659,-2.0,-0.8876953,-0.14453125,-333.5625,-29.125,-130.9375,0.0,0.0,0.0
448,1695814216684,-2.0,-0.056640625,-2.0,-83.28125,-209.78125,-34.75,0.0,0.0,0.0
449,1695814216760,1.3427734,0.85546875,-0.56347656,-151.5625,63.59375,-6.25,-86.875,9.9375,-38.75
450,1695814216783,-2.0,-0.47753906,1.0380859,134.03125,-41.46875,416.65625,0.0,0.0,0.0
451,1695814216833,-0.3720703,-1.0058594,0.83203125,-96.28125,146.71875,167.34375,0.0,0.0,0.0
452,1695814216858,-1.3466797,-0.038085938,0.4404297,89.78125,230.21875,140.5,0.0,0.0,0.0
453,1695814216883,-0.72753906,0.18359375,1.078125,-32.25,91.90625,126.15625,0.0,0.0,0.0
454,1695814216932,-0.15625,-1.8613281,-0.0048828125,-137.84375,-36.40625,43.9375,0.0,0.0,0.0
455,1695814216984,0.29785156,-0.5361328,0.24804688,-33.34375,15.90625,-103.53125,0.0,0.0,0.0
456,1695814217033,-0.26660156,-0.16699219,0.4716797,5.59375,-140.03125,-156.8125,0.0,0.0,0.0
457,1695814217058,-1.2910156,-0.16699219,-0.3466797,89.84375,-216.03125,-139.90625,0.0,0.0,0.0
458,1695814217086,-2.0,-0.9433594,-0.057617188,268.21875,-214.5625,-187.6875,0.0,0.0,0.0
459,1695814217133,-2.0,-0.08984375,-0.005859375,50.34375,-193.9375,-230.84375,0.0,0.0,0.0
460,1695814217184,-0.9404297,-0.10839844,-0.2705078,-47.6875,-108.96875,-198.5,0.0,0.0,0.0
461,1695814217209,-0.44140625,-0.5908203,-0.15136719,152.875,-31.625,-67.71875,0.0,0.0,0.0
462,1695814217259,0.9267578,1.1914062,-0.31933594,94.65625,59.5,41.3125,-74.375,24.5,-18.375
463,1695814217282,1.3300781,0.9638672,-0.79003906,-163.03125,228.25,168.4375,0.0,0.0,0.0
464,1695814217333,-0.7636719,0.24609375,0.3017578,31.40625,25.25,158.75,0.0,0.0,0.0
465,1695814217383,-2.0,-1.1923828,-0.62597656,-251.53125,31.1875,-107.6875,0.0,0.0,0.0
466,1695814217408,-2.0,0.5439453,-1.1523438,146.71875,-77.09375,174.0,0.0,0.0,0.0
467,1695814217459,-0.24023438,0.17773438,0.28125,-213.625,-9.34375,-133.3125,0.0,0.0,0.0
468,1695814217483,-1.0908203,-0.20214844,-0.66503906,59.75,64.375,300.34375,0.0,0.0,0.0
469,1695814217534,-1.6640625,-1.6484375,-0.1328125,103.8125,140.625,209.40625,0.0,0.0,0.0
470,1695814217585,-1.4863281,-0.19140625,0.48046875,71.9375,164.65625,129.625,0.0,0.0,0.0
471,1695814217608,-1.2099609,0.15722656,0.2529297,-51.15625,101.5,139.8125,0.0,0.0,0.0
472,1695814217685,-0.37109375,-1.7539062,0.33691406,-67.59375,4.9375,52.71875,0.0,0.0,0.0
473,1695814217719,0.24511719,-0.6064453,0.19433594,3.84375,-36.5625,-120.6875,0.0,0.0,0.0
474,1695814217734,-0.5908203,0.14355469,0.4638672,34.15625,-163.15625,-141.9375,-94.1875,26.0,-48.1875
475,1695814217783,-1.7587891,-0.40039062,-0.16113281,125.71875,-264.71875,-176.15625,0.0,0.0,0.0
476,1695814217807,-2.0,-0.083984375,-0.13574219,5.28125,-233.78125,-269.59375,0.0,0.0,0.0
477,1695814217858,-2.0,-0.16308594,-0.1640625,69.1875,-85.59375,-241.15625,0.0,0.0,0.0
478,1695814217882,-0.5654297,-0.97265625,-0.06933594,75.125,-62.625,-152.0625,0.0,0.0,0.0
479,1695814217934,0.15625,-0.09863281,-0.52441406,189.0,-19.0625,-17.90625,0.0,0.0,0.0
480,1695814217984,0.79003906,1.0839844,-0.16308594,35.15625,169.1875,123.75,0.0,0.0,0.0
481,1695814218009,-0.029296875,1.2529297,-0.24414062,-103.71875,199.09375,177.71875,0.0,0.0,0.0
482,1695814218085,-0.6640625,-0.5888672,0.68066406,179.4375,0.71875,52.34375,0.0,0.0,0.0
483,1695814218087,-0.91503906,-0.41992188,-1.3632812,-834.90625,125.40625,-153.875,0.0,0.0,0.0
484,1695814218133,-2.0,-2.0,-2.0,84.53125,-70.03125,-55.375,0.0,0.0,0.0
485,1695814218183,0.55371094,1.1875,-0.51953125,-218.40625,50.59375,28.65625,0.0,0.0,0.0
486,1695814218209,-1.9443359,0.27734375,0.828125,203.125,21.53125,306.875,0.0,0.0,0.0
487,1695814218258,-0.7548828,-2.0,0.5957031,-21.125,161.125,171.0625,-92.375,20.5625,-45.1875
488,1695814218282,-1.1777344,0.20214844,0.5527344,51.5625,155.6875,134.1875,0.0,0.0,0.0
489,1695814218335,-1.0107422,-0.47070312,0.171875,-87.34375,76.09375,121.6875,0.0,0.0,0.0
490,1695814218385,-0.09277344,-2.0,0.6640625,-36.40625,4.5,31.34375,0.0,0.0,0.0
491,1695814218409,0.061523438,-0.28125,0.41015625,6.21875,-52.875,-120.8125,0.0,0.0,0.0
492,1695814218458,-0.5341797,-0.041992188,0.63671875,31.0625,-155.59375,-125.625,0.0,0.0,0.0
493,1695814218490,-1.703125,-0.34765625,-0.5361328,121.3125,-239.40625,-165.90625,0.0,0.0,0.0
494,1695814218533,-2.0,-0.49902344,-0.10644531,1.5,-249.53125,-247.625,0.0,0.0,0.0
495,1695814218583,-2.0,-0.1484375,-0.055664062,90.1875,-154.0625,-246.34375,0.0,0.0,0.0
496,1695814218609,-0.63964844,-0.9824219,-0.10058594,114.96875,-41.03125,-137.46875,0.0,0.0,0.0
497,1695814218658,0.3642578,0.54296875,-0.54589844,186.09375,-1.96875,-11.84375,0.0,0.0,0.0
498,1695814218683,1.1464844,1.4697266,-0.16601562,-31.21875,207.75,124.8125,0.0,0.0,0.0
499,1695814218732,0.36816406,0.8535156,-0.31933594,-115.5,153.0625,156.34375,-87.125,26.875,-27.1875
500,1695814218782,-0.9013672,-0.5205078,0.71191406,138.65625,30.1875,68.34375,0.0,0.0,0.0
501,1695814218808,-1.6650391,-1.0224609,-1.6816406,-705.28125,130.28125,-149.0625,0.0,0.0,0.0
502,1695814218869,-2.0,0.28710938,-2.0,292.34375,-188.125,120.09375,0.0,0.0,0.0
503,1695814218883,1.515625,1.6220703,-1.0800781,-204.0625,-85.65625,-106.21875,0.0,0.0,0.0
504,1695814218932,-1.390625,0.0009765625,-0.038085938,27.03125,-36.8125,317.96875,0.0,0.0,0.0
505,1695814218983,-1.4638672,-2.0,1.3076172,7.90625,259.03125,259.375,0.0,0.0,0.0
506,1695814219008,-1.484375,0.13671875,0.42382812,64.25,199.9375,117.1875,0.0,0.0,0.0
507,1695814219108,-1.1865234,0.31445312,0.09082031,-31.4375,121.09375,123.21875,0.0,0.0,0.0
508,1695814219135,-0.484375,-1.5908203,0.67871094,-113.59375,39.90625,71.15625,0.0,0.0,0.0
509,1695814219139,0.7128906,-1.1162109,-0.52441406,-21.625,-13.25,-106.03125,0.0,0.0,0.0
510,1695814219182,-0.79785156,0.28222656,1.0517578,39.59375,-159.875,-159.0,0.0,0.0,0.0
511,1695814219209,-1.6113281,-0.06347656,-0.4375,139.875,-255.625,-156.6875,0.0,0.0,0.0
512,1695814219258,-2.0,0.08886719,-0.20605469,39.90625,-283.46875,-231.40625,-92.5625,15.3125,-40.4375
513,1695814219307,-2.0,-0.4248047,-0.13671875,101.71875,-174.28125,-260.875,0.0,0.0,0.0
514,1695814219332,-0.45117188,-0.8691406,-0.38671875,57.96875,-133.5625,-196.78125,0.0,0.0,0.0
515,1695814219384,0.24316406,0.4501953,-0.47558594,174.96875,-43.53125,-48.71875,0.0,0.0,0.0
516,1695814219408,1.1171875,1.2304688,-0.28808594,-8.5,209.8125,114.59375,0.0,0.0,0.0
517,1695814219458,1.0146484,1.2705078,-0.16308594,-88.6875,138.65625,174.125,0.0,0.0,0.0
518,1695814219484,-0.72558594,-0.41308594,0.3203125,130.0625,57.65625,85.125,0.0,0.0,0.0
519,1695814219533,-2.0,-1.0371094,-1.0205078,-719.4375,179.375,-60.3125,0.0,0.0,0.0
520,1695814219584,-2.0,-2.0,-2.0,59.0625,-139.53125,-106.09375,0.0,0.0,0.0
521,1695814219607,2.0,2.0,-0.00390625,-153.28125,167.59375,-26.0625,0.0,0.0,0.0
522,1695814219657,-1.7675781,-0.9296875,0.23632812,-112.25,63.875,218.125,0.0,0.0,0.0
523,1695814219684,-0.43554688,-2.0,1.3359375,-243.25,204.9375,240.59375,0.0,0.0,0.0
524,1695814219734,-1.7060547,0.087890625,0.29785156,100.75,214.28125,163.375,-91.375,20.5625,-41.0
525,1695814219808,-1.2714844,0.0087890625,0.1953125,-21.0,153.25,148.59375,0.0,0.0,0.0
526,1695814219833,-0.7519531,-1.3134766,1.1269531,-71.90625,66.5,91.0625,0.0,0.0,0.0
527,1695814219857,0.57714844,-1.1865234,-0.26367188,-31.03125,-9.0,-61.46875,0.0,0.0,0.0
528,1695814219884,-0.5449219,-0.10546875,0.7050781,8.78125,-132.09375,-133.25,0.0,0.0,0.0
529,1695814219933,-1.6708984,-0.50683594,0.053710938,97.75,-200.09375,-132.40625,0.0,0.0,0.0
530,1695814219983,-2.0,0.057617188,0.07324219,98.75,-251.0625,-240.1875,0.0,0.0,0.0
531,1695814220007,-2.0,-0.32128906,-0.00390625,-25.09375,-222.90625,-228.59375,0.0,0.0,0.0
532,1695814220058,-1.0634766,-0.64941406,-0.20214844,-64.65625,-160.71875,-191.90625,0.0,0.0,0.0
533,1695814220082,-0.5654297,-0.15625,-0.22851562,146.65625,-88.34375,-84.625,0.0,0.0,0.0
534,1695814220133,1.0576172,1.2714844,-0.3408203,128.9375,37.09375,5.46875,0.0,0.0,0.0
535,1695814220208,1.46875,0.5332031,-0.81347656,-149.75,223.8125,114.90625,0.0,0.0,0.0
536,1695814220210,-0.12695312,0.5078125,0.3720703,49.375,31.65625,190.78125,0.0,0.0,0.0
537,1695814220257,-1.5253906,-0.6074219,0.45117188,-2.8125,-12.59375,18.78125,-84.625,17.125,-37.25
538,1695814220285,-1.4814453,1.0556641,1.3544922,-554.875,207.5,68.71875,0.0,0.0,0.0
539,1695814220335,-1.5302734,1.3300781,2.0,-144.90625,131.46875,-74.46875,0.0,0.0,0.0
540,1695814220382,1.8037109,2.0,-0.8378906,70.78125,56.5,238.5625,0.0,0.0,0.0
541,1695814220407,-2.0,-1.6679688,-1.7880859,45.9375,117.96875,309.375,0.0,0.0,0.0
542,1695814220458,-1.3457031,-0.43066406,0.31640625,26.34375,90.0625,90.25,0.0,0.0,0.0
543,1695814220484,-1.3369141,0.5136719,0.390625,-12.40625,149.15625,126.8125,0.0,0.0,0.0
544,1695814220536,-1.0097656,-0.7451172,1.1328125,-92.4375,71.8125,90.875,0.0,0.0,0.0
545,1695814220583,0.76953125,-2.0,0.4638672,-13.625,-17.90625,-53.71875,0.0,0.0,0.0
546,1695814220609,-0.8671875,0.111328125,0.8574219,49.1875,-156.75,-157.1875,0.0,0.0,0.0
547,1695814220658,-2.0,-0.9951172,0.40722656,215.125,-264.65625,-178.78125,0.0,0.0,0.0
548,1695814220708,-2.0,0.9638672,-0.15527344,26.96875,-294.15625,-294.75,0.0,0.0,0.0
549,1695814220732,-2.0,-0.43164062,0.23828125,42.34375,-187.9375,-237.0625,-87.0,12.9375,-30.9375
550,1695814220785,-0.78808594,-1.234375,-0.25,35.75,-41.09375,-192.9375,0.0,0.0,0.0
551,1695814220834,0.41015625,0.1484375,-0.06542969,128.40625,6.34375,-80.8125,0.0,0.0,0.0
552,1695814220858,1.2128906,0.8642578,-0.3876953,40.34375,165.09375,158.5625,0.0,0.0,0.0
553,1695814220884,1.2431641,2.0,-0.2939453,-76.0,85.625,197.5625,0.0,0.0,0.0
554,1695814220933,-0.74316406,0.5048828,0.0546875,104.46875,41.0,100.5625,0.0,0.0,0.0
555,1695814220984,-2.0,-1.7011719,-0.50683594,-423.46875,196.75,-127.8125,0.0,0.0,0.0
556,1695814221007,-2.0,-1.7167969,-2.0,-57.875,-111.34375,-101.03125,0.0,0.0,0.0
557,1695814221058,1.9775391,2.0,-0.30859375,-76.375,140.0,-46.15625,0.0,0.0,0.0
558,1695814221083,-1.8613281,-0.62402344,-0.15527344,-93.40625,67.125,242.90625,0.0,0.0,0.0
559,1695814221135,-0.7470703,-2.0,0.85839844,-151.25,123.46875,281.0,0.0,0.0,0.0
560,1695814221183,-1.3759766,-0.06347656,0.09082031,75.375,164.0625,166.5625,0.0,0.0,0.0
561,1695814221208,-1.0908203,0.4560547,0.24609375,14.8125,166.125,126.6875,0.0,0.0,0.0
562,1695814221258,-0.6015625,-1.2119141,1.0761719,-7.9375,65.46875,88.90625,-95.125,24.3125,-49.875
563,1695814221282,0.3671875,-0.8808594,0.10253906,4.0,-32.90625,-94.0,0.0,0.0,0.0
564,1695814221335,-0.5800781,-0.1796875,0.2998047,2.59375,-173.90625,-146.25,0.0,0.0,0.0
565,1695814221386,-2.0,-0.9140625,-0.39453125,278.25,-197.53125,-221.375,0.0,0.0,0.0
566,1695814221412,-2.0,0.5449219,-0.453125,141.46875,-254.78125,-344.0,0.0,0.0,0.0
567,1695814221459,-2.0,-0.30078125,0.13183594,43.8125,-180.5625,-249.84375,0.0,0.0,0.0
568,1695814221483,-0.71777344,-1.0302734,-0.4091797,93.1875,-55.0625,-170.5,0.0,0.0,0.0
569,1695814221534,0.60253906,0.75097656,-0.20996094,142.375,0.28125,-10.875,0.0,0.0,0.0
570,1695814221583,1.1318359,0.86621094,-0.60546875,-4.40625,204.5625,183.875,0.0,0.0,0.0
571,1695814221608,0.3798828,1.3388672,0.0107421875,-56.59375,55.21875,175.59375,0.0,0.0,0.0
572,1695814221659,-0.7324219,-0.20605469,0.37402344,177.84375,23.3125,57.78125,0.0,0.0,0.0
573,1695814221685,-1.8867188,-1.5761719,1.8779297,-799.5625,129.5625,-143.09375,0.0,0.0,0.0
574,1695814221732,-0.9501953,-0.33203125,1.3535156,29.21875,50.28125,-128.1875,-88.5,2.875,-40.5625
575,1695814221783,0.14746094,2.0,-0.8535156,-16.3125,136.65625,193.46875,0.0,0.0,0.0
576,1695814221807,-2.0,-1.2617188,-2.0,-12.84375,203.34375,347.28125,0.0,0.0,0.0
577,1695814221859,-0.69921875,-0.94628906,0.28320312,2.90625,81.65625,131.21875,0.0,0.0,0.0
578,1695814221884,-1.4570312,0.0703125,0.25976562,63.9375,174.78125,153.0625,0.0,0.0,0.0
579,1695814221932,-0.6875,-0.2763672,0.69433594,-48.1875,88.71875,113.375,0.0,0.0,0.0
580,1695814221984,0.14355469,-2.0,0.23144531,-99.125,-2.03125,14.9375,0.0,0.0,0.0
581,1695814222009,-0.103515625,-0.16699219,0.42382812,12.875,-72.65625,-128.5625,0.0,0.0,0.0
582,1695814222059,-0.47070312,-0.32617188,0.28027344,72.4375,-168.65625,-123.71875,0.0,0.0,0.0
583,1695814222083,-2.0,-1.1582031,-0.72558594,129.5625,-276.3125,-213.03125,0.0,0.0,0.0
584,1695814222134,-2.0,0.84375,-0.03515625,83.59375,-219.75,-323.0,0.0,0.0,0.0
585,1695814222183,-2.0,-0.12402344,0.37695312,119.25,-191.53125,-269.5,0.0,0.0,0.0
586,1695814222209,-0.6660156,-0.9707031,-0.2861328,47.78125,-42.6875,-142.90625,0.0,0.0,0.0
587,1695814222258,0.61816406,0.5546875,-0.29492188,151.53125,-6.25,-9.40625,-78.75,9.8125,-12.8125
588,1695814222282,0.9248047,1.0478516,-0.021484375,-42.5625,197.5,129.0625,0.0,0.0,0.0
589,1695814222333,0.85058594,1.0097656,-0.31054688,-108.40625,136.65625,183.28125,0.0,0.0,0.0
590,1695814222384,-0.6591797,-0.7216797,0.12402344,186.03125,24.03125,102.84375,0.0,0.0,0.0
591,1695814222408,-2.0,-1.5585938,-1.3408203,-649.125,89.34375,-194.15625,0.0,0.0,0.0
592,1695814222459,-2.0,-2.0,-1.6357422,-46.46875,-23.4375,-160.40625,0.0,0.0,0.0
593,1695814222483,1.6298828,2.0,-0.072265625,-63.84375,169.84375,62.0,0.0,0.0,0.0
594,1695814222534,-2.0,-1.0195312,-0.7050781,-145.46875,61.5,239.375,0.0,0.0,0.0
595,1695814222584,-0.25878906,-2.0,0.1640625,13.71875,62.125,206.65625,0.0,0.0,0.0
596,1695814222612,-1.2373047,-0.25097656,0.34960938,105.40625,179.625,142.375,0.0,0.0,0.0
597,1695814222659,-1.03125,0.19628906,0.28027344,4.0,143.78125,97.59375,0.0,0.0,0.0
598,1695814222685,-0.43652344,-1.1484375,0.9658203,-17.84375,52.59375,68.84375,0.0,0.0,0.0
599,1695814222733,0.21777344,-1.0800781,0.055664062,2.96875,-31.625,-80.28125,-95.6875,26.0,-51.6875
600,1695814222790,-0.5859375,-0.0703125,0.8408203,-72.28125,-171.9375,-160.21875,0.0,0.0,0.0
601,1695814222807,-1.1523438,-0.37890625,-0.29882812,120.34375,-252.46875,-182.6875,0.0,0.0,0.0
602,1695814222856,-2.0,-0.41015625,-0.09667969,157.75,-253.5625,-263.5625,0.0,0.0,0.0
603,1695814222882,-2.0,-0.15917969,-0.009765625,108.375,-182.875,-239.875,0.0,0.0,0.0
604,1695814222934,-0.59472656,-1.2919922,-0.18457031,12.9375,-75.15625,-252.6875,0.0,0.0,0.0
605,1695814222985,0.390625,0.14355469,-0.052734375,94.09375,3.46875,-39.6875,0.0,0.0,0.0
606,1695814223007,1.2382812,0.89746094,-0.19726562,76.09375,182.59375,153.4375,0.0,0.0,0.0
607,1695814223059,0.96972656,1.5761719,-0.14941406,-35.28125,136.9375,218.0625,0.0,0.0,0.0
608,1695814223107,-0.66503906,0.36328125,-0.32226562,47.78125,67.0625,108.0625,0.0,0.0,0.0
609,1695814223133,-2.0,-1.3701172,-0.38476562,-378.3125,75.90625,-121.34375,0.0,0.0,0.0
610,1695814223183,-2.0,-1.6240234,-1.8164062,76.78125,-181.40625,-2.40625,0.0,0.0,0.0
611,1695814223208,1.6679688,1.7724609,-0.77441406,-157.90625,23.53125,-58.25,0.0,0.0,0.0
612,1695814223258,-1.5214844,0.24121094,0.21679688,16.59375,-48.65625,314.375,-93.125,10.5625,-41.625
613,1695814223285,-2.0,-2.0,0.9316406,-121.53125,141.40625,251.375,0.0,0.0,0.0
614,1695814223333,-1.4462891,0.26953125,0.3779297,113.75,148.0625,148.84375,0.0,0.0,0.0
615,1695814223409,-1.0625,0.12109375,-0.19238281,-59.78125,128.78125,146.21875,0.0,0.0,0.0
616,1695814223411,-0.3935547,-1.3261719,0.7060547,-67.59375,91.34375,101.1875,0.0,0.0,0.0
617,1695814223460,0.40820312,-1.0986328,-0.28222656,-68.375,20.84375,-93.03125,0.0,0.0,0.0
618,1695814223485,-0.50878906,0.5722656,0.69140625,20.90625,-137.53125,-129.34375,0.0,0.0,0.0
619,1695814223533,-0.4716797,-0.33984375,-0.09863281,86.96875,-181.34375,-103.78125,0.0,0.0,0.0
620,1695814223583,-2.0,-2.0,-0.4814453,216.84375,-229.6875,-196.4375,0.0,0.0,0.0
621,1695814223608,-2.0,0.5527344,-0.29003906,21.03125,-284.375,-302.625,0.0,0.0,0.0
622,1695814223658,-1.3896484,-0.20800781,-0.45996094,7.0625,-141.75,-266.875,0.0,0.0,0.0
623,1695814223685,-0.029296875,-0.0234375,-0.32421875,148.90625,-44.4375,-121.28125,0.0,0.0,0.0
624,1695814223733,1.8769531,2.0,-0.6455078,54.6875,112.59375,82.5,-77.5625,19.5625,-10.4375
625,1695814223759,1.0859375,1.1796875,0.041992188,-140.53125,139.9375,163.1875,0.0,0.0,0.0
626,1695814223808,-0.6425781,0.1015625,-0.048828125,131.625,54.90625,172.96875,0.0,0.0,0.0
627,1695814223858,-2.0,-1.1621094,-0.2109375,-321.0625,26.21875,-35.46875,0.0,0.0,0.0
628,1695814223909,-2.0,-0.7109375,-1.3095703,420.9375,-406.3125,-1.90625,0.0,0.0,0.0
629,1695814223932,2.0,2.0,0.22753906,-205.8125,217.34375,-123.25,0.0,0.0,0.0
630,1695814223957,-1.7724609,0.18554688,0.33203125,-318.875,55.15625,220.0625,0.0,0.0,0.0
631,1695814224009,-2.0,-2.0,1.3798828,-96.625,417.90625,482.96875,0.0,0.0,0.0
632,1695814224058,-1.6240234,0.8486328,0.013671875,68.84375,144.15625,120.21875,0.0,0.0,0.0
633,1695814224085,-1.328125,-0.025390625,0.13378906,-53.125,132.1875,165.8125,0.0,0.0,0.0
634,1695814224134,-0.56347656,-1.3046875,1.0078125,-127.40625,79.8125,104.21875,0.0,0.0,0.0
635,1695814224158,0.98339844,-1.9033203,-0.58691406,-8.0,36.84375,-101.625,0.0,0.0,0.0
636,1695814224208,-0.86816406,0.2685547,0.88671875,71.625,-130.15625,-149.5,0.0,0.0,0.0
637,1695814224257,-0.5859375,0.021484375,-0.4404297,100.21875,-202.03125,-109.6875,-94.8125,19.6875,-49.125
638,1695814224282,-2.0,-1.9443359,-0.37695312,281.1875,-260.03125,-195.9375,0.0,0.0,0.0
639,1695814224334,-2.0,-0.359375,-0.1484375,-87.96875,-239.28125,-299.28125,0.0,0.0,0.0
640,1695814224359,-1.0039062,-0.15722656,-0.67871094,-17.59375,-149.375,-270.65625,0.0,0.0,0.0
641,1695814224408,-0.3154297,-0.3408203,-0.1640625,153.0,-50.78125,-85.9375,0.0,0.0,0.0
642,1695814224458,1.5175781,1.96875,-0.42871094,84.6875,146.15625,93.4375,0.0,0.0,0.0
643,1695814224486,1.4179688,1.9794922,-0.2919922,-155.03125,149.28125,208.1875,0.0,0.0,0.0
644,1695814224532,-0.4970703,0.07421875,-0.0146484375,50.78125,77.875,174.84375,0.0,0.0,0.0
645,1695814224557,-2.0,-1.2724609,-0.24316406,-235.1875,69.75,3.53125,0.0,0.0,0.0
646,1695814224634,0.5,-0.3388672,0.9628906,-245.6875,215.25,28.0,0.0,0.0,0.0
647,1695814224659,-2.0,-2.0,-0.9160156,280.125,-363.96875,-281.375,0.0,0.0,0.0
648,1695814224683,2.0,2.0,-0.9091797,-213.75,179.625,236.625,0.0,0.0,0.0
649,1695814224732,-2.0,-1.3154297,-2.0,-57.3125,136.9375,222.21875,-98.25,6.1875,-50.3125
650,1695814224758,0.044921875,-1.1728516,-0.037109375,54.84375,114.78125,32.34375,0.0,0.0,0.0
651,1695814224807,-1.6855469,0.85253906,0.3798828,66.875,136.71875,113.625,0.0,0.0,0.0
652,1695814224860,-0.78808594,-0.4296875,0.49121094,-54.9375,72.5625,102.21875,0.0,0.0,0.0
653,1695814224884,0.22070312,-2.0,0.42773438,-75.21875,-7.9375,56.75,0.0,0.0,0.0
654,1695814224934,-0.2265625,-0.234375,0.75,-25.15625,-50.5,-135.5,0.0,0.0,0.0
655,1695814224960,-0.546875,0.10839844,-0.65234375,56.875,-221.03125,-127.6875,0.0,0.0,0.0
656,1695814225008,-2.0,-1.3310547,-0.4736328,322.6875,-257.03125,-205.15625,0.0,0.0,0.0
657,1695814225058,-2.0,0.6425781,-0.8535156,49.84375,-320.8125,-250.25,0.0,0.0,0.0
658,1695814225084,-2.0,-0.013671875,0.20800781,58.8125,-155.21875,-277.0625,0.0,0.0,0.0
659,1695814225134,-0.4736328,-0.9003906,-0.18066406,88.65625,-45.84375,-130.15625,0.0,0.0,0.0
660,1695814225157,0.9560547,1.1132812,-0.5292969,115.53125,54.1875,14.28125,0.0,0.0,0.0
661,1695814225208,1.3613281,0.74316406,-0.24511719,-20.21875,213.65625,177.09375,0.0,0.0,0.0
662,1695814225258,-0.020507812,1.0869141,0.49902344,44.71875,19.75,171.125,-80.125,22.6875,-28.125
663,1695814225283,-1.2109375,-1.3457031,0.0107421875,-20.53125,-39.5,-25.34375,0.0,0.0,0.0
664,1695814225332,-2.0,-0.28125,2.0,-180.25,180.96875,136.875,0.0,0.0,0.0
665,1695814225384,-0.11425781,0.60058594,0.765625,-111.90625,-52.1875,-137.21875,0.0,0.0,0.0
666,1695814225408,0.85839844,2.0,-0.44921875,-68.0625,46.5625,315.53125,0.0,0.0,0.0
667,1695814225458,-2.0,-2.0,-1.8388672,147.375,27.625,310.90625,0.0,0.0,0.0
668,1695814225483,-1.5361328,0.0107421875,0.16992188,68.59375,164.71875,123.875,0.0,0.0,0.0
669,1695814225533,-0.8066406,0.15917969,0.047851562,44.34375,165.34375,142.4375,0.0,0.0,0.0
670,1695814225557,-1.046875,-0.46777344,1.4160156,5.78125,100.75,88.59375,0.0,0.0,0.0
671,1695814225608,0.56640625,-1.78125,0.49804688,-59.03125,-12.59375,-63.0625,0.0,0.0,0.0
672,1695814225657,-0.63964844,0.296875,0.58691406,5.1875,-149.4375,-152.1875,0.0,0.0,0.0
673,1695814225689,-1.8974609,-0.9589844,-0.15722656,147.375,-252.40625,-165.40625,0.0,0.0,0.0
674,1695814225733,-2.0,0.20507812,-0.609375,91.34375,-278.34375,-274.5,-92.375,17.75,-38.625
675,1695814225758,-2.0,-0.6298828,0.15429688,4.125,-243.65625,-263.875,0.0,0.0,0.0
676,1695814225807,-0.62109375,-1.3212891,-0.515625,49.3125,-95.84375,-215.78125,0.0,0.0,0.0
677,1695814225858,0.32226562,0.33984375,-0.07714844,67.625,-36.6875,-77.53125,0.0,0.0,0.0
678,1695814225882,1.2324219,1.5478516,-0.60058594,58.9375,143.0625,137.125,0.0,0.0,0.0
679,1695814225933,0.97265625,1.2978516,-0.5126953,-119.71875,151.03125,164.0,0.0,0.0,0.0
680,1695814225957,-0.71777344,0.09472656,0.5029297,187.53125,49.96875,144.40625,0.0,0.0,0.0
681,1695814226010,-2.0,-1.2822266,-1.3544922,-625.0625,111.25,-146.5,0.0,0.0,0.0
682,1695814226058,-2.0,1.3583984,-2.0,324.375,-209.625,275.6875,0.0,0.0,0.0
683,1695814226082,1.5917969,0.8173828,-0.6533203,-241.96875,-5.09375,-70.8125,0.0,0.0,0.0
684,1695814226132,-1.5019531,0.2626953,0.10644531,46.0625,72.375,312.84375,0.0,0.0,0.0
685,1695814226158,-1.6162109,-2.0,1.2607422,67.5,290.15625,252.5625,0.0,0.0,0.0
686,1695814226208,-1.8681641,0.40234375,0.3828125,90.125,198.96875,109.40625,0.0,0.0,0.0
687,1695814226258,-0.71777344,0.24316406,0.25097656,-18.21875,138.03125,125.15625,-99.4375,17.125,-55.6875
688,1695814226282,-0.8876953,-1.5742188,0.23535156,-122.34375,42.71875,60.03125,0.0,0.0,0.0
689,1695814226332,0.2939453,-0.69921875,0.0048828125,9.625,-2.34375,-112.375,0.0,0.0,0.0
690,1695814226357,-0.4169922,0.22070312,0.53222656,-30.78125,-163.53125,-136.0625,0.0,0.0,0.0
691,1695814226409,-1.1806641,-0.31152344,-0.4970703,92.8125,-270.875,-131.0,0.0,0.0,0.0
692,1695814226459,-2.0,-0.9658203,-0.052734375,188.40625,-179.53125,-256.3125,0.0,0.0,0.0
693,1695814226483,-2.0,-0.109375,-0.0859375,8.78125,-221.375,-240.6875,0.0,0.0,0.0
694,1695814226533,-0.58691406,-0.23339844,-0.53808594,-99.5625,-107.5,-251.0625,0.0,0.0,0.0
695,1695814226558,0.09472656,-0.3388672,0.08496094,73.09375,-15.59375,-68.0625,0.0,0.0,0.0
696,1695814226610,1.28125,1.6064453,-0.3251953,40.03125,143.0625,112.15625,0.0,0.0,0.0
697,1695814226659,1.1826172,1.4111328,-0.5722656,-51.59375,184.1875,215.6875,0.0,0.0,0.0
698,1695814226684,-0.8847656,0.24609375,0.043945312,159.09375,52.21875,177.96875,0.0,0.0,0.0
699,1695814226732,-2.0,-1.46875,-0.9707031,-452.59375,28.1875,-148.625,-86.375,11.4375,-33.8125
700,1695814226758,-2.0,1.4853516,-0.19726562,257.6875,-232.25,138.90625,0.0,0.0,0.0
701,1695814226809,0.95996094,1.0683594,-0.3798828,-194.96875,-57.9375,-131.78125,0.0,0.0,0.0
702,1695814226862,-1.0966797,-0.01171875,0.15917969,111.1875,-43.90625,359.25,0.0,0.0,0.0
703,1695814226907,-1.8320312,-2.0,1.3095703,21.96875,184.625,217.625,0.0,0.0,0.0
704,1695814226932,-1.1953125,0.0029296875,0.5371094,88.96875,188.875,145.4375,0.0,0.0,0.0
705,1695814226968,-0.9501953,-0.045898438,-0.11328125,-38.03125,124.0625,133.09375,0.0,0.0,0.0
706,1695814227007,-0.7626953,-1.2929688,0.8388672,-13.875,61.9375,80.96875,0.0,0.0,0.0
707,1695814227056,0.41308594,-1.1337891,-0.17773438,-34.8125,-6.4375,-90.40625,0.0,0.0,0.0
708,1695814227082,-0.48242188,0.45507812,0.6425781,6.5,-158.34375,-142.15625,0.0,0.0,0.0
709,1695814227133,-0.6904297,-0.3544922,-0.4716797,138.34375,-229.1875,-112.5,0.0,0.0,0.0
710,1695814227158,-2.0,-1.0986328,-0.5966797,236.0625,-188.0,-182.375,0.0,0.0,0.0
711,1695814227208,-2.0,0.12402344,-0.22460938,-6.3125,-185.25,-243.0,0.0,0.0,0.0
712,1695814227259,-1.1699219,-0.41601562,-0.20214844,-43.03125,-100.53125,-259.96875,-79.1875,6.3125,-31.4375
713,1695814227285,-0.20996094,-0.46484375,-0.029296875,97.40625,-1.0625,-84.65625,0.0,0.0,0.0
714,1695814227333,0.63964844,1.265625,-0.26953125,107.34375,83.84375,69.5625,0.0,0.0,0.0
715,1695814227358,1.3115234,1.25,-0.4267578,-109.28125,194.8125,160.75,0.0,0.0,0.0
716,1695814227409,-0.6298828,0.35546875,0.3623047,49.84375,3.65625,197.875,0.0,0.0,0.0
717,1695814227484,-1.7275391,-1.1005859,-0.7578125,-184.53125,48.8125,-72.28125,0.0,0.0,0.0
718,1695814227486,-1.8427734,2.0,1.4658203,370.40625,-145.03125,247.1875,0.0,0.0,0.0
719,1695814227533,0.7548828,1.2900391,-0.1875,-168.65625,-65.5,-186.0,0.0,0.0,0.0
720,1695814227558,-0.75097656,0.7314453,-0.009765625,-3.6875,-45.125,385.125,0.0,0.0,0.0
721,1695814227608,-2.0,-2.0,0.13085938,148.46875,104.0625,263.09375,0.0,0.0,0.0
722,1695814227657,-1.8339844,-0.04296875,0.2734375,67.5625,124.625,136.59375,0.0,0.0,0.0
723,1695814227682,-0.7011719,0.2626953,0.19140625,-26.0625,112.96875,138.46875,0.0,0.0,0.0
724,1695814227732,-0.68847656,-0.9121094,0.7167969,-34.9375,75.59375,92.21875,-94.625,22.0625,-39.1875
725,1695814227766,0.25976562,-1.5429688,0.5136719,0.90625,17.0625,-60.125,0.0,0.0,0.0
726,1695814227808,-0.54296875,0.4013672,0.6484375,-1.78125,-124.34375,-160.71875,0.0,0.0,0.0
727,1695814227859,-0.8955078,-0.28710938,-0.4736328,48.03125,-203.3125,-137.78125,0.0,0.0,0.0
728,1695814227884,-2.0,-0.8808594,-0.48339844,215.25,-177.3125,-231.40625,0.0,0.0,0.0
729,1695814227932,-2.0,0.0126953125,-0.48242188,-5.3125,-227.0625,-208.625,0.0,0.0,0.0
730,1695814227966,-1.0810547,-0.38476562,-0.12597656,-30.96875,-109.625,-238.1875,0.0,0.0,0.0
731,1695814228006,-0.71972656,-0.9375,-0.099609375,148.53125,1.21875,-87.28125,0.0,0.0,0.0
732,1695814228057,0.6152344,1.0351562,-0.28320312,136.9375,43.875,46.75,0.0,0.0,0.0
733,1695814228084,1.6552734,1.0507812,-0.5830078,-67.03125,229.78125,184.8125,0.0,0.0,0.0
734,1695814228132,-0.4033203,0.5878906,0.34570312,-73.375,15.90625,162.40625,0.0,0.0,0.0
735,1695814228157,-1.0849609,-0.6816406,0.85546875,75.4375,12.75,-22.125,0.0,0.0,0.0
736,1695814228208,-1.7998047,-0.82910156,2.0,-481.09375,224.28125,33.75,0.0,0.0,0.0
737,1695814228260,-1.7949219,-1.1777344,1.4179688,127.125,17.3125,-147.46875,-82.625,9.0625,-36.8125
738,1695814228283,1.4707031,2.0,-0.43945312,-54.75,124.8125,187.3125,0.0,0.0,0.0
739,1695814228332,-2.0,-0.7285156,-1.7001953,-89.0,135.53125,225.5625,0.0,0.0,0.0
740,1695814228357,-0.29101562,-1.0732422,0.4658203,3.21875,56.125,98.5625,0.0,0.0,0.0
741,1695814228433,-1.0087891,-0.3642578,0.31152344,93.6875,167.90625,124.8125,0.0,0.0,0.0
742,1695814228458,-1.0673828,0.095703125,0.31152344,-36.875,128.03125,123.875,0.0,0.0,0.0
743,1695814228483,-0.09765625,-1.9785156,0.4765625,-32.65625,32.6875,46.3125,0.0,0.0,0.0
744,1695814228532,-0.20117188,-0.036132812,0.33496094,-22.59375,-76.375,-138.5,0.0,0.0,0.0
745,1695814228557,-0.6142578,0.26660156,0.515625,-8.5,-187.03125,-140.40625,0.0,0.0,0.0
746,1695814228608,-2.0,-1.1474609,-0.43359375,91.71875,-298.84375,-206.5,0.0,0.0,0.0
747,1695814228658,-2.0,0.17773438,0.0,34.84375,-270.84375,-316.71875,0.0,0.0,0.0
748,1695814228683,-2.0,0.3564453,0.13671875,81.09375,-203.9375,-248.5,0.0,0.0,0.0
749,1695814228734,-0.6435547,-1.1152344,-0.12402344,79.9375,-41.09375,-141.6875,-70.375,12.625,-10.875
750,1695814228757,0.41601562,0.55859375,-0.23632812,97.8125,3.34375,-13.5625,0.0,0.0,0.0
751,1695814228808,0.9111328,0.94628906,0.030273438,-52.375,214.40625,146.84375,0.0,0.0,0.0
752,1695814228857,0.8095703,0.44921875,-0.2626953,-110.96875,99.59375,175.65625,0.0,0.0,0.0
753,1695814228883,-0.9785156,-0.31347656,0.5986328,190.15625,23.71875,87.03125,0.0,0.0,0.0
754,1695814228932,-2.0,-1.1328125,-1.1923828,-724.3125,144.21875,-123.0,0.0,0.0,0.0
755,1695814228958,-0.21289062,0.59277344,0.4951172,-156.875,21.09375,-97.375,0.0,0.0,0.0
756,1695814229007,0.71972656,2.0,-0.11621094,-30.84375,127.125,197.6875,0.0,0.0,0.0
757,1695814229058,-2.0,-2.0,-2.0,27.625,155.4375,233.75,0.0,0.0,0.0
758,1695814229082,-1.1962891,-0.60253906,-0.09765625,65.71875,88.1875,155.4375,0.0,0.0,0.0
759,1695814229133,-1.1572266,-0.6142578,0.4453125,46.625,178.8125,142.9375,0.0,0.0,0.0
