,timestamp,accel_x,accel_y,accel_z,gyro_x,gyro_y,gyro_z,mag_x,mag_y,mag_z
0,1695726234786,-0.15332031,0.15136719,0.9238281,-0.125,-0.03125,-0.21875,0.0,0.0,0.0
1,1695726234826,-0.15625,0.15136719,0.9423828,-0.125,-0.03125,-0.40625,0.0,0.0,0.0
2,1695726234846,-0.15625,0.14453125,0.93359375,-0.0625,0.03125,-0.34375,0.0,0.0,0.0
3,1695726234886,-0.15722656,0.14257812,0.94921875,0.0,0.15625,-0.53125,0.0,0.0,0.0
4,1695726234926,-0.16210938,0.14355469,0.92871094,0.0625,0.15625,-0.46875,0.0,0.0,0.0
5,1695726234966,-0.15820312,0.14550781,0.94628906,-0.125,-0.03125,-0.53125,-45.4375,-14.9375,-89.0
6,1695726235007,-0.16796875,0.14453125,0.93652344,-0.1875,0.03125,-0.40625,0.0,0.0,0.0
7,1695726235047,-0.15820312,0.15527344,0.9375,0.125,-0.03125,-0.46875,0.0,0.0,0.0
8,1695726235106,-0.16210938,0.14550781,0.9169922,0.0,0.09375,-0.46875,0.0,0.0,0.0
9,1695726235127,-0.15917969,0.15234375,0.93652344,-0.25,-0.03125,-0.46875,0.0,0.0,0.0
10,1695726235167,-0.14941406,0.14648438,0.9316406,-0.59375,0.15625,-0.46875,0.0,0.0,0.0
11,1695726235206,-0.16503906,0.140625,0.9248047,0.0,0.21875,-0.28125,0.0,0.0,0.0
12,1695726235247,-0.15820312,0.13671875,0.93847656,0.0,-0.03125,-0.34375,0.0,0.0,0.0
13,1695726235286,-0.15820312,0.14648438,0.9423828,0.125,-0.21875,-0.40625,0.0,0.0,0.0
14,1695726235327,-0.16308594,0.13378906,0.9404297,-0.1875,-0.03125,-0.46875,0.0,0.0,0.0
15,1695726235367,-0.15625,0.14257812,0.9277344,-0.375,-0.03125,-0.46875,0.0,0.0,0.0
16,1695726235407,-0.16210938,0.14257812,0.95214844,0.0625,-0.03125,-0.65625,0.0,0.0,0.0
17,1695726235446,-0.16894531,0.13671875,0.93652344,-0.0625,0.03125,-0.28125,0.0,0.0,0.0
18,1695726235487,-0.15625,0.1484375,0.9267578,-0.125,0.15625,-0.34375,-45.3125,-14.375,-89.125
19,1695726235528,-0.16113281,0.14550781,0.94628906,0.125,-0.21875,-0.40625,0.0,0.0,0.0
20,1695726235587,-0.1640625,0.13769531,0.92871094,-0.1875,-0.28125,-0.34375,0.0,0.0,0.0
21,1695726235607,-0.15722656,0.13964844,0.9511719,-0.125,-0.28125,-0.28125,0.0,0.0,0.0
22,1695726235647,-0.15332031,0.1328125,0.9394531,0.1875,-0.15625,-0.34375,0.0,0.0,0.0
23,1695726235688,-0.15527344,0.14355469,0.92871094,0.3125,-0.03125,-0.46875,0.0,0.0,0.0
24,1695726235727,-0.16015625,0.14453125,0.93652344,-0.0625,0.03125,-0.40625,0.0,0.0,0.0
25,1695726235767,-0.15722656,0.14257812,0.9423828,-0.125,-0.15625,-0.59375,0.0,0.0,0.0
26,1695726235808,-0.15820312,0.14453125,0.9423828,0.125,-0.03125,-0.53125,0.0,0.0,0.0
27,1695726235847,-0.15332031,0.13964844,0.94140625,0.1875,-0.21875,-0.53125,0.0,0.0,0.0
28,1695726235888,-0.15722656,0.140625,0.9296875,0.0625,-0.03125,-0.46875,0.0,0.0,0.0
29,1695726235928,-0.15332031,0.14746094,0.9296875,0.0625,-0.15625,-0.34375,0.0,0.0,0.0
30,1695726235969,-0.15722656,0.13183594,0.94433594,0.1875,0.09375,-0.46875,-45.0,-14.0625,-89.125
31,1695726236008,-0.15820312,0.13476562,0.92578125,-0.53125,0.15625,-0.40625,0.0,0.0,0.0
32,1695726236050,-0.15136719,0.14355469,0.9423828,0.0,0.40625,-0.34375,0.0,0.0,0.0
33,1695726236087,-0.15917969,0.13671875,0.93847656,0.625,-0.34375,-0.53125,0.0,0.0,0.0
34,1695726236129,-0.15722656,0.13867188,0.94140625,0.0625,-0.03125,-0.40625,0.0,0.0,0.0
35,1695726236187,-0.1640625,0.14160156,0.94433594,-0.0625,-0.15625,-0.59375,0.0,0.0,0.0
36,1695726236208,-0.15722656,0.14746094,0.9472656,0.625,-0.15625,-0.65625,0.0,0.0,0.0
37,1695726236247,-0.15820312,0.1484375,0.9404297,0.4375,0.03125,-0.65625,0.0,0.0,0.0
38,1695726236288,-0.15234375,0.13867188,0.92871094,-0.0625,0.03125,-0.34375,0.0,0.0,0.0
39,1695726236348,-0.15234375,0.14257812,0.9453125,0.375,0.09375,-0.40625,0.0,0.0,0.0
40,1695726236367,-0.16210938,0.14257812,0.9423828,0.4375,-0.03125,-0.40625,0.0,0.0,0.0
41,1695726236408,-0.15722656,0.13964844,0.92578125,0.0,-0.21875,-0.40625,0.0,0.0,0.0
42,1695726236447,-0.16015625,0.13867188,0.9404297,0.4375,0.09375,-0.40625,0.0,0.0,0.0
43,1695726236487,-0.1640625,0.13085938,0.9394531,0.25,0.03125,-0.53125,-44.375,-14.1875,-88.375
44,1695726236529,-0.15332031,0.13476562,0.9394531,0.4375,0.09375,-0.46875,0.0,0.0,0.0
45,1695726236569,-0.15820312,0.13867188,0.93359375,0.3125,0.21875,-0.34375,0.0,0.0,0.0
46,1695726236607,-0.15625,0.13476562,0.9326172,0.5625,0.21875,-0.53125,0.0,0.0,0.0
47,1695726236649,-0.16113281,0.14355469,0.9404297,0.6875,0.09375,-0.46875,0.0,0.0,0.0
48,1695726236689,-0.15625,0.14648438,0.9316406,0.625,-0.03125,-0.65625,0.0,0.0,0.0
49,1695726236728,-0.15136719,0.15625,0.94140625,0.5625,0.15625,-0.53125,0.0,0.0,0.0
50,1695726236787,-0.1640625,0.13769531,0.9453125,0.6875,0.28125,-0.40625,0.0,0.0,0.0
51,1695726236806,-0.16015625,0.14550781,0.9394531,0.125,0.03125,-0.21875,0.0,0.0,0.0
52,1695726236847,-0.16601562,0.13769531,0.9423828,0.0,0.40625,-0.15625,0.0,0.0,0.0
53,1695726236888,-0.15332031,0.14453125,0.93847656,0.0,0.21875,-0.40625,0.0,0.0,0.0
54,1695726236926,-0.15722656,0.1484375,0.9550781,0.84375,0.15625,-0.46875,0.0,0.0,0.0
55,1695726236967,-0.15136719,0.14648438,0.9501953,0.6875,-0.21875,-0.46875,-45.625,-14.375,-89.125
56,1695726237007,-0.15917969,0.13183594,0.9433594,0.4375,0.21875,-0.40625,0.0,0.0,0.0
57,1695726237050,-0.16113281,0.13964844,0.9394531,0.1875,-0.09375,-0.53125,0.0,0.0,0.0
58,1695726237106,-0.15820312,0.14453125,0.92578125,0.625,-0.21875,-0.78125,0.0,0.0,0.0
59,1695726237129,-0.16601562,0.15136719,0.9404297,0.5625,0.28125,-0.53125,0.0,0.0,0.0
60,1695726237166,-0.15722656,0.14453125,0.9238281,0.375,-0.21875,-0.34375,0.0,0.0,0.0
61,1695726237210,-0.15917969,0.14257812,0.94433594,0.125,0.21875,-0.40625,0.0,0.0,0.0
62,1695726237250,-0.15332031,0.13769531,0.94140625,0.0625,-0.09375,-0.34375,0.0,0.0,0.0
63,1695726237286,-0.16015625,0.140625,0.9326172,0.125,-0.03125,-0.40625,0.0,0.0,0.0
64,1695726237330,-0.15136719,0.13964844,0.93359375,0.375,0.03125,-0.46875,0.0,0.0,0.0
65,1695726237370,-0.16210938,0.14453125,0.94140625,0.0,0.09375,-0.28125,0.0,0.0,0.0
66,1695726237428,-0.15429688,0.14453125,0.93066406,0.1875,0.28125,-0.46875,0.0,0.0,0.0
67,1695726237448,-0.15136719,0.14746094,0.9267578,0.1875,0.34375,-0.46875,0.0,0.0,0.0
68,1695726237488,-0.15625,0.14453125,0.93847656,0.125,0.03125,-0.46875,-44.375,-13.9375,-88.375
69,1695726237528,-0.15820312,0.15234375,0.9355469,0.0625,0.21875,-0.46875,0.0,0.0,0.0
70,1695726237568,-0.16699219,0.14550781,0.9423828,-0.0625,-0.03125,-0.40625,0.0,0.0,0.0
71,1695726237608,-0.15625,0.14550781,0.9511719,0.3125,-0.03125,-0.53125,0.0,0.0,0.0
72,1695726237648,-0.15625,0.13964844,0.9394531,-0.0625,-0.03125,-0.34375,0.0,0.0,0.0
73,1695726237688,-0.1640625,0.14453125,0.9345703,-0.0625,0.21875,-0.28125,0.0,0.0,0.0
74,1695726237727,-0.16601562,0.140625,0.9472656,-0.25,0.28125,-0.40625,0.0,0.0,0.0
75,1695726237769,-0.16113281,0.13964844,0.9375,-0.5,0.21875,-0.40625,0.0,0.0,0.0
76,1695726237807,-0.16015625,0.140625,0.9423828,0.1875,0.03125,-0.34375,0.0,0.0,0.0
77,1695726237869,-0.16113281,0.13574219,0.9277344,0.25,0.15625,-0.46875,0.0,0.0,0.0
78,1695726237887,-0.16796875,0.14160156,0.9267578,0.25,-0.09375,-0.59375,0.0,0.0,0.0
79,1695726237928,-0.1640625,0.15136719,0.93847656,-0.0625,-0.21875,-0.65625,0.0,0.0,0.0
80,1695726237968,-0.16894531,0.1484375,0.92578125,-0.375,-0.03125,-0.46875,-45.625,-13.75,-87.1875
81,1695726238008,-0.16796875,0.140625,0.9453125,0.125,-0.03125,-0.40625,0.0,0.0,0.0
82,1695726238048,-0.16210938,0.140625,0.9316406,0.0625,-0.28125,-0.34375,0.0,0.0,0.0
83,1695726238089,-0.16113281,0.13769531,0.93652344,-0.25,0.09375,-0.15625,0.0,0.0,0.0
84,1695726238127,-0.16015625,0.1328125,0.9345703,0.125,-0.28125,-0.34375,0.0,0.0,0.0
85,1695726238167,-0.16992188,0.13867188,0.9277344,0.0,-0.15625,-0.46875,0.0,0.0,0.0
86,1695726238207,-0.15722656,0.14160156,0.9345703,0.1875,-0.40625,-0.59375,0.0,0.0,0.0
87,1695726238248,-0.16308594,0.13867188,0.9326172,0.0,0.15625,-0.34375,0.0,0.0,0.0
88,1695726238288,-0.16699219,0.13769531,0.9404297,0.0625,0.28125,-0.21875,0.0,0.0,0.0
89,1695726238327,-0.16308594,0.13964844,0.92871094,0.5625,-0.09375,-0.59375,0.0,0.0,0.0
90,1695726238367,-0.14941406,0.13476562,0.93066406,0.0,-0.03125,-0.53125,0.0,0.0,0.0
91,1695726238407,-0.15625,0.13769531,0.93847656,0.0625,0.15625,-0.53125,0.0,0.0,0.0
92,1695726238448,-0.16308594,0.14746094,0.9326172,0.375,-0.21875,-0.53125,0.0,0.0,0.0
93,1695726238486,-0.15429688,0.13671875,0.9404297,0.0625,-0.15625,-0.40625,-42.75,-14.375,-88.25
94,1695726238528,-0.15429688,0.13183594,0.93359375,-0.1875,0.15625,-0.15625,0.0,0.0,0.0
95,1695726238568,-0.15917969,0.14257812,0.94628906,0.4375,0.21875,-0.28125,0.0,0.0,0.0
96,1695726238628,-0.1640625,0.13769531,0.9404297,0.75,-0.15625,-0.34375,0.0,0.0,0.0
97,1695726238649,-0.16015625,0.13671875,0.9345703,-0.3125,-0.34375,-0.40625,0.0,0.0,0.0
98,1695726238686,-0.15820312,0.13378906,0.93652344,0.0625,0.28125,-0.34375,0.0,0.0,0.0
99,1695726238729,-0.15820312,0.1328125,0.9394531,0.25,-0.28125,-0.53125,0.0,0.0,0.0
100,1695726238768,-0.16308594,0.14257812,0.9248047,0.3125,0.09375,-0.46875,0.0,0.0,0.0
101,1695726238808,-0.16308594,0.14355469,0.9453125,0.5,-0.15625,-0.40625,0.0,0.0,0.0
102,1695726238848,-0.15917969,0.13378906,0.9345703,0.1875,-0.03125,-0.53125,0.0,0.0,0.0
103,1695726238888,-0.16015625,0.13964844,0.94433594,-0.1875,-0.15625,-0.59375,0.0,0.0,0.0
104,1695726238934,-0.15820312,0.140625,0.9355469,0.0,-0.09375,-0.46875,0.0,0.0,0.0
105,1695726238967,-0.16015625,0.14453125,0.93847656,0.375,0.03125,-0.59375,-43.8125,-15.125,-87.8125
106,1695726239008,-0.15917969,0.14355469,0.92285156,0.25,-0.28125,-0.53125,0.0,0.0,0.0
107,1695726239048,-0.15820312,0.13671875,0.9326172,0.125,-0.03125,-0.28125,0.0,0.0,0.0
108,1695726239088,-0.15820312,0.13574219,0.9355469,0.1875,-0.21875,-0.40625,0.0,0.0,0.0
109,1695726239128,-0.15234375,0.14355469,0.93847656,0.0625,-0.21875,-0.46875,0.0,0.0,0.0
110,1695726239168,-0.15820312,0.13769531,0.9375,0.4375,-0.09375,-0.46875,0.0,0.0,0.0
111,1695726239207,-0.15917969,0.13964844,0.93652344,0.1875,0.09375,-0.46875,0.0,0.0,0.0
112,1695726239250,-0.15527344,0.140625,0.9404297,0.1875,-0.03125,-0.34375,0.0,0.0,0.0
113,1695726239296,-0.15332031,0.14355469,0.953125,0.125,0.03125,-0.53125,0.0,0.0,0.0
114,1695726239327,-0.15917969,0.13378906,0.9326172,0.1875,-0.03125,-0.59375,0.0,0.0,0.0
115,1695726239410,-0.15722656,0.14648438,0.9394531,0.25,-0.09375,-0.46875,0.0,0.0,0.0
116,1695726239415,-0.15820312,0.13769531,0.92578125,0.3125,0.09375,-0.59375,0.0,0.0,0.0
117,1695726239447,-0.15234375,0.1484375,0.9433594,0.3125,-0.09375,-0.46875,0.0,0.0,0.0
118,1695726239487,-0.15917969,0.13476562,0.92871094,0.1875,0.09375,-0.34375,-44.125,-15.6875,-87.375
119,1695726239530,-0.15917969,0.13574219,0.92871094,0.25,0.21875,-0.28125,0.0,0.0,0.0
120,1695726239587,-0.15917969,0.13671875,0.9375,0.375,0.09375,-0.40625,0.0,0.0,0.0
121,1695726239609,-0.15332031,0.14746094,0.93847656,0.4375,0.03125,-0.46875,0.0,0.0,0.0
122,1695726239650,-0.16308594,0.13671875,0.9355469,0.25,0.15625,-0.40625,0.0,0.0,0.0
123,1695726239687,-0.15917969,0.14257812,0.9316406,0.25,0.03125,-0.46875,0.0,0.0,0.0
124,1695726239727,-0.15722656,0.13671875,0.9375,0.1875,0.15625,-0.53125,0.0,0.0,0.0
125,1695726239768,-0.16015625,0.140625,0.9248047,-0.0625,0.5625,-0.53125,0.0,0.0,0.0
126,1695726239812,-0.15917969,0.13964844,0.953125,0.1875,0.03125,-0.34375,0.0,0.0,0.0
127,1695726239847,-0.15722656,0.14257812,0.9316406,0.75,-0.15625,-0.65625,0.0,0.0,0.0
128,1695726239887,-0.15625,0.13671875,0.93652344,0.4375,-0.21875,-0.46875,0.0,0.0,0.0
129,1695726239928,-0.15917969,0.13476562,0.9355469,0.0,-0.09375,-0.46875,0.0,0.0,0.0
130,1695726239971,-0.15917969,0.13964844,0.9248047,0.3125,-0.21875,-0.46875,-46.0625,-14.8125,-88.5625
131,1695726240014,-0.16308594,0.1484375,0.921875,0.5625,-0.28125,-0.40625,0.0,0.0,0.0
132,1695726240046,-0.15136719,0.14453125,0.9482422,0.5625,0.15625,-0.53125,0.0,0.0,0.0
133,1695726240091,-0.16015625,0.12109375,0.93359375,0.0,-0.28125,-0.40625,0.0,0.0,0.0
134,1695726240147,-0.15429688,0.13476562,0.94140625,-0.125,0.03125,0.03125,0.0,0.0,0.0
135,1695726240167,-0.15722656,0.140625,0.9267578,-0.4375,0.03125,0.09375,0.0,0.0,0.0
136,1695726240207,-0.14941406,0.14355469,0.9326172,0.0625,0.03125,0.03125,0.0,0.0,0.0
137,1695726240248,-0.16308594,0.14257812,0.93652344,0.3125,0.09375,-0.1875,0.0,0.0,0.0
138,1695726240287,-0.16113281,0.13671875,0.93066406,-0.25,0.15625,0.09375,0.0,0.0,0.0
139,1695726240327,-0.15039062,0.13085938,0.9345703,-0.0625,0.53125,0.03125,0.0,0.0,0.0
140,1695726240366,-0.15332031,0.13574219,0.9394531,0.3125,0.15625,0.03125,0.0,0.0,0.0
141,1695726240409,-0.16113281,0.14355469,0.9355469,0.0,0.21875,0.03125,0.0,0.0,0.0
142,1695726240448,-0.15722656,0.14160156,0.94140625,0.0625,0.34375,0.15625,0.0,0.0,0.0
143,1695726240488,-0.16113281,0.13574219,0.9375,-0.0625,0.21875,0.09375,-44.125,-13.1875,-88.375
144,1695726240527,-0.1640625,0.13574219,0.94628906,-0.25,0.21875,0.03125,0.0,0.0,0.0
145,1695726240568,-0.16015625,0.13964844,0.9296875,-0.1875,0.34375,0.03125,0.0,0.0,0.0
146,1695726240608,-0.16113281,0.13476562,0.9326172,-0.1875,0.46875,-0.03125,0.0,0.0,0.0
147,1695726240648,-0.15722656,0.14648438,0.94433594,-0.0625,0.09375,-0.15625,0.0,0.0,0.0
148,1695726240689,-0.15722656,0.14257812,0.9345703,-0.1875,0.15625,-0.15625,0.0,0.0,0.0
149,1695726240728,-0.16308594,0.13476562,0.9423828,-0.5,0.15625,0.03125,0.0,0.0,0.0
150,1695726240767,-0.16210938,0.13476562,0.9345703,-0.4375,0.03125,-0.03125,0.0,0.0,0.0
151,1695726240808,-0.16113281,0.13964844,0.9248047,-0.625,0.03125,-0.03125,0.0,0.0,0.0
152,1695726240847,-0.16015625,0.13671875,0.93066406,-0.3125,0.15625,0.03125,0.0,0.0,0.0
153,1695726240908,-0.15722656,0.13476562,0.93652344,-0.3125,-0.15625,-0.15625,0.0,0.0,0.0
154,1695726240927,-0.15917969,0.14257812,0.9423828,-0.375,-0.15625,-0.03125,0.0,0.0,0.0
155,1695726240968,-0.16210938,0.13964844,0.9326172,-0.375,-0.15625,-0.15625,-45.3125,-14.0625,-88.5625
156,1695726241008,-0.16503906,0.13964844,0.93652344,-0.3125,-0.03125,-0.15625,0.0,0.0,0.0
157,1695726241048,-0.16210938,0.13964844,0.9355469,0.125,-0.09375,-0.09375,0.0,0.0,0.0
158,1695726241088,-0.15722656,0.14355469,0.9248047,-0.6875,0.03125,0.09375,0.0,0.0,0.0
159,1695726241127,-0.16796875,0.13183594,0.94628906,-0.25,0.09375,0.15625,0.0,0.0,0.0
160,1695726241168,-0.15820312,0.13671875,0.93066406,0.125,-0.21875,0.09375,0.0,0.0,0.0
161,1695726241208,-0.16308594,0.13574219,0.9482422,-0.3125,-0.09375,0.09375,0.0,0.0,0.0
162,1695726241248,-0.1640625,0.140625,0.9375,-0.5,-0.15625,-0.09375,0.0,0.0,0.0
163,1695726241290,-0.15820312,0.1328125,0.9375,-0.90625,-0.03125,0.53125,0.0,0.0,0.0
164,1695726241328,-0.15722656,0.14257812,0.9423828,-0.1875,-0.09375,0.46875,0.0,0.0,0.0
165,1695726241387,-0.15625,0.13183594,0.93652344,0.1875,0.03125,0.46875,0.0,0.0,0.0
166,1695726241414,-0.15332031,0.13476562,0.9316406,-0.3125,0.03125,0.53125,0.0,0.0,0.0
167,1695726241448,-0.16015625,0.140625,0.93847656,-0.3125,0.03125,0.46875,0.0,0.0,0.0
168,1695726241491,-0.15234375,0.14355469,0.9404297,-0.25,-0.03125,0.40625,-43.8125,-15.875,-88.875
169,1695726241534,-0.16113281,0.13378906,0.9316406,-0.375,-0.03125,0.53125,0.0,0.0,0.0
170,1695726241568,-0.16113281,0.13671875,0.93066406,-0.0625,0.03125,0.40625,0.0,0.0,0.0
171,1695726241609,-0.15820312,0.140625,0.9433594,-0.3125,0.03125,0.46875,0.0,0.0,0.0
172,1695726241668,-0.1640625,0.13671875,0.92871094,-0.5,-0.03125,0.40625,0.0,0.0,0.0
173,1695726241688,-0.16015625,0.13769531,0.9433594,-0.0625,0.15625,0.40625,0.0,0.0,0.0
174,1695726241728,-0.16113281,0.13671875,0.94433594,-0.25,0.03125,0.53125,0.0,0.0,0.0
175,1695726241770,-0.16308594,0.13769531,0.9316406,-0.5625,0.09375,0.46875,0.0,0.0,0.0
176,1695726241809,-0.16601562,0.1328125,0.9404297,-0.84375,0.34375,0.46875,0.0,0.0,0.0
177,1695726241856,-0.15429688,0.13964844,0.9501953,-0.625,-0.09375,0.59375,0.0,0.0,0.0
178,1695726241887,-0.16210938,0.12890625,0.9404297,-0.6875,0.09375,0.34375,0.0,0.0,0.0
179,1695726241927,-0.16796875,0.12890625,0.9453125,-0.4375,-0.4375,0.40625,0.0,0.0,0.0
180,1695726241968,-0.1640625,0.140625,0.93847656,-0.75,-0.09375,0.59375,-45.125,-16.4375,-88.375
181,1695726242007,-0.15820312,0.13671875,0.9326172,-0.4375,-0.09375,0.34375,0.0,0.0,0.0
182,1695726242048,-0.15917969,0.12792969,0.9375,-0.4375,-0.34375,0.34375,0.0,0.0,0.0
183,1695726242089,-0.16699219,0.13476562,0.92285156,-0.3125,-0.03125,0.28125,0.0,0.0,0.0
184,1695726242129,-0.16210938,0.12792969,0.9482422,-0.3125,-0.15625,0.40625,0.0,0.0,0.0
185,1695726242168,-0.15722656,0.13867188,0.9375,-0.4375,-0.15625,0.40625,0.0,0.0,0.0
186,1695726242207,-0.16015625,0.12695312,0.9501953,-0.3125,-0.15625,0.34375,0.0,0.0,0.0
187,1695726242251,-0.16308594,0.12988281,0.9345703,-0.75,0.09375,0.40625,0.0,0.0,0.0
188,1695726242287,-0.15722656,0.13574219,0.92871094,-0.125,0.15625,0.40625,0.0,0.0,0.0
189,1695726242334,-0.1640625,0.12890625,0.94140625,-0.1875,0.09375,0.46875,0.0,0.0,0.0
190,1695726242368,-0.16601562,0.13085938,0.9453125,-0.25,0.34375,0.65625,0.0,0.0,0.0
191,1695726242427,-0.16015625,0.13183594,0.9394531,0.1875,0.34375,0.59375,0.0,0.0,0.0
192,1695726242447,-0.16503906,0.13183594,0.93359375,-0.125,0.09375,0.34375,0.0,0.0,0.0
193,1695726242488,-0.16601562,0.12695312,0.93847656,-0.1875,0.09375,0.34375,-45.125,-14.9375,-89.0
194,1695726242535,-0.16308594,0.12792969,0.9355469,0.1875,0.28125,0.40625,0.0,0.0,0.0
195,1695726242567,-0.16601562,0.13085938,0.9316406,0.0625,0.03125,0.34375,0.0,0.0,0.0
196,1695726242606,-0.16308594,0.13476562,0.9404297,0.3125,0.28125,0.59375,0.0,0.0,0.0
197,1695726242646,-0.15625,0.13378906,0.9326172,0.3125,0.28125,0.46875,0.0,0.0,0.0
198,1695726242687,-0.15234375,0.13867188,0.9433594,-0.0625,0.21875,0.40625,0.0,0.0,0.0
199,1695726242728,-0.1640625,0.12597656,0.9375,-0.25,0.09375,0.40625,0.0,0.0,0.0
200,1695726242787,-0.15917969,0.13476562,0.9345703,-0.0625,0.34375,0.46875,0.0,0.0,0.0
201,1695726242831,-0.16308594,0.13183594,0.9267578,-0.125,0.28125,0.71875,0.0,0.0,0.0
202,1695726242849,-0.1640625,0.13964844,0.93847656,-0.0625,0.09375,0.40625,0.0,0.0,0.0
203,1695726242887,-0.16308594,0.13085938,0.94921875,0.0625,0.28125,0.40625,0.0,0.0,0.0
204,1695726242927,-0.17285156,0.12988281,0.93359375,-0.625,0.46875,0.46875,0.0,0.0,0.0
205,1695726242968,-0.16796875,0.1328125,0.9316406,0.125,0.28125,0.46875,-45.875,-15.25,-89.0
206,1695726243007,-0.16308594,0.13769531,0.93847656,0.125,-0.09375,0.28125,0.0,0.0,0.0
207,1695726243046,-0.15917969,0.13183594,0.94140625,-0.125,0.28125,0.53125,0.0,0.0,0.0
208,1695726243086,-0.16113281,0.1328125,0.9472656,0.0,0.09375,0.15625,0.0,0.0,0.0
209,1695726243127,-0.16796875,0.13574219,0.93066406,0.0,0.03125,0.28125,0.0,0.0,0.0
210,1695726243187,-0.15429688,0.12890625,0.9404297,0.1875,0.21875,0.34375,0.0,0.0,0.0
211,1695726243207,-0.1640625,0.13476562,0.9326172,-0.25,0.28125,0.46875,0.0,0.0,0.0
212,1695726243248,-0.16992188,0.12597656,0.94140625,-0.25,0.09375,0.59375,0.0,0.0,0.0
213,1695726243288,-0.15625,0.13476562,0.9433594,-0.125,0.21875,0.53125,0.0,0.0,0.0
214,1695726243328,-0.15917969,0.13378906,0.9326172,-0.375,0.09375,0.53125,0.0,0.0,0.0
215,1695726243368,-0.16894531,0.12890625,0.9296875,-0.25,0.15625,0.28125,0.0,0.0,0.0
216,1695726243406,-0.17578125,0.13378906,0.9345703,-0.0625,0.40625,0.34375,0.0,0.0,0.0
217,1695726243450,-0.15625,0.13476562,0.9472656,0.0625,0.34375,0.40625,0.0,0.0,0.0
218,1695726243487,-0.17089844,0.14160156,0.92871094,-0.1875,0.40625,0.34375,-44.5625,-14.8125,-89.875
219,1695726243528,-0.17089844,0.12988281,0.9267578,-0.375,0.09375,0.46875,0.0,0.0,0.0
220,1695726243568,-0.16015625,0.13867188,0.93359375,-0.25,0.34375,0.40625,0.0,0.0,0.0
221,1695726243628,-0.16601562,0.14453125,0.9267578,-0.25,0.03125,0.40625,0.0,0.0,0.0
222,1695726243647,-0.15917969,0.13085938,0.9316406,-0.3125,-0.09375,0.46875,0.0,0.0,0.0
223,1695726243688,-0.1640625,0.13574219,0.9316406,-0.5625,0.03125,0.46875,0.0,0.0,0.0
224,1695726243728,-0.1640625,0.13085938,0.93847656,-0.4375,-0.03125,0.53125,0.0,0.0,0.0
225,1695726243767,-0.15722656,0.14257812,0.9326172,-0.375,0.15625,0.46875,0.0,0.0,0.0
226,1695726243806,-0.15820312,0.13671875,0.9277344,-0.125,0.09375,0.21875,0.0,0.0,0.0
227,1695726243869,-0.16015625,0.13378906,0.94140625,-0.25,0.03125,0.40625,0.0,0.0,0.0
228,1695726243890,-0.16796875,0.13769531,0.9375,-0.6875,0.09375,0.40625,0.0,0.0,0.0
229,1695726243947,-0.16308594,0.13378906,0.94628906,-0.4375,-0.03125,0.53125,0.0,0.0,0.0
230,1695726243967,-0.15917969,0.1328125,0.94433594,-0.5625,0.03125,0.28125,-45.125,-13.4375,-89.0
231,1695726244009,-0.16210938,0.12792969,0.9404297,-0.125,-0.09375,0.65625,0.0,0.0,0.0
232,1695726244051,-0.16113281,0.12597656,0.93847656,-0.0625,0.03125,0.53125,0.0,0.0,0.0
233,1695726244088,-0.16894531,0.12695312,0.9316406,-0.5625,-0.21875,0.59375,0.0,0.0,0.0
234,1695726244128,-0.15820312,0.13769531,0.9267578,-0.5625,-0.09375,0.28125,0.0,0.0,0.0
235,1695726244168,-0.16503906,0.13378906,0.9355469,-0.5625,-0.09375,0.28125,0.0,0.0,0.0
236,1695726244209,-0.16113281,0.13964844,0.9355469,-0.3125,-0.15625,0.40625,0.0,0.0,0.0
237,1695726244248,-0.16015625,0.13085938,0.93652344,-0.3125,-0.03125,0.40625,0.0,0.0,0.0
238,1695726244288,-0.16210938,0.13671875,0.93652344,-0.3125,0.21875,0.53125,0.0,0.0,0.0
239,1695726244331,-0.1640625,0.13867188,0.9375,-0.3125,-0.15625,0.46875,0.0,0.0,0.0
240,1695726244369,-0.15820312,0.12988281,0.93066406,-0.6875,-0.15625,0.46875,0.0,0.0,0.0
241,1695726244408,-0.16015625,0.12402344,0.9375,-0.6875,0.03125,0.34375,0.0,0.0,0.0
242,1695726244448,-0.16503906,0.12890625,0.9472656,-0.6875,-0.6875,0.65625,0.0,0.0,0.0
243,1695726244486,-0.16113281,0.12988281,0.9326172,-0.5,0.09375,0.65625,-44.6875,-14.6875,-89.4375
244,1695726244531,-0.16601562,0.13183594,0.93847656,-0.625,0.40625,0.34375,0.0,0.0,0.0
245,1695726244569,-0.15527344,0.125,0.9472656,-0.4375,0.34375,0.53125,0.0,0.0,0.0
246,1695726244608,-0.15820312,0.13378906,0.9394531,-0.25,0.34375,0.21875,0.0,0.0,0.0
247,1695726244649,-0.17480469,0.13476562,0.93359375,-0.125,0.15625,0.46875,0.0,0.0,0.0
248,1695726244707,-0.16015625,0.12402344,0.9433594,-0.5,0.09375,0.53125,0.0,0.0,0.0
249,1695726244727,-0.15917969,0.12402344,0.92089844,0.3125,0.03125,0.34375,0.0,0.0,0.0
250,1695726244788,-0.16308594,0.13378906,0.9375,-0.4375,-0.09375,0.46875,0.0,0.0,0.0
251,1695726244809,-0.16210938,0.12207031,0.9296875,-0.625,0.21875,0.53125,0.0,0.0,0.0
252,1695726244850,-0.15332031,0.12695312,0.9404297,0.1875,-0.09375,0.40625,0.0,0.0,0.0
253,1695726244887,-0.16503906,0.12792969,0.9375,0.1875,0.09375,0.46875,0.0,0.0,0.0
254,1695726244934,-0.15820312,0.14257812,0.9453125,-0.1875,0.09375,0.40625,0.0,0.0,0.0
255,1695726244968,-0.16601562,0.13476562,0.9501953,-0.25,0.40625,0.21875,-45.0,-14.8125,-88.25
256,1695726245013,-0.1640625,0.13183594,0.9433594,-0.25,0.34375,0.40625,0.0,0.0,0.0
257,1695726245046,-0.16308594,0.12988281,0.9404297,-0.0625,0.09375,0.46875,0.0,0.0,0.0
258,1695726245087,-0.16015625,0.13378906,0.9482422,0.1875,-0.09375,0.46875,0.0,0.0,0.0
259,1695726245128,-0.16113281,0.12988281,0.9326172,0.125,-0.09375,0.28125,0.0,0.0,0.0
260,1695726245168,-0.16210938,0.13183594,0.93847656,-0.125,-0.28125,0.21875,0.0,0.0,0.0
261,1695726245209,-0.17089844,0.13183594,0.9482422,-0.3125,-0.4375,0.21875,0.0,0.0,0.0
262,1695726245248,-0.16015625,0.13183594,0.9267578,-0.1875,0.03125,0.28125,0.0,0.0,0.0
263,1695726245288,-0.15917969,0.13183594,0.9501953,-0.75,-0.03125,0.59375,0.0,0.0,0.0
264,1695726245328,-0.15820312,0.12792969,0.9326172,-0.5,-0.15625,0.53125,0.0,0.0,0.0
265,1695726245368,-0.15429688,0.12597656,0.9482422,-0.0625,-0.34375,0.40625,0.0,0.0,0.0
266,1695726245407,-0.17089844,0.13476562,0.93066406,-0.125,0.03125,0.34375,0.0,0.0,0.0
267,1695726245471,-0.15917969,0.12988281,0.9394531,-0.1875,0.28125,0.46875,0.0,0.0,0.0
268,1695726245487,-0.15917969,0.12695312,0.94628906,-0.375,0.09375,0.40625,-44.6875,-15.25,-88.375
269,1695726245527,-0.16992188,0.13183594,0.94140625,-0.375,0.28125,0.46875,0.0,0.0,0.0
270,1695726245567,-0.15917969,0.12988281,0.9423828,-0.25,0.28125,0.46875,0.0,0.0,0.0
271,1695726245606,-0.1640625,0.13378906,0.9326172,-0.25,0.03125,0.46875,0.0,0.0,0.0
272,1695726245648,-0.16308594,0.12402344,0.9404297,-0.125,0.03125,0.46875,0.0,0.0,0.0
273,1695726245687,-0.16796875,0.13378906,0.93652344,-0.1875,0.03125,0.28125,0.0,0.0,0.0
274,1695726245728,-0.15917969,0.13476562,0.9326172,-0.3125,0.03125,0.40625,0.0,0.0,0.0
275,1695726245768,-0.1640625,0.1171875,0.9550781,-0.25,0.34375,0.53125,0.0,0.0,0.0
276,1695726245809,-0.16308594,0.12988281,0.93847656,0.125,0.15625,0.46875,0.0,0.0,0.0
277,1695726245848,-0.1640625,0.13183594,0.93652344,0.25,0.09375,0.40625,0.0,0.0,0.0
278,1695726245887,-0.15722656,0.13476562,0.93066406,0.0,0.09375,0.40625,0.0,0.0,0.0
279,1695726245928,-0.16113281,0.12695312,0.93847656,-0.125,0.09375,0.40625,0.0,0.0,0.0
280,1695726245968,-0.16601562,0.12988281,0.9267578,0.25,0.09375,0.40625,-43.8125,-15.875,-87.8125
281,1695726246009,-0.1640625,0.12988281,0.9375,-0.125,-0.03125,0.53125,0.0,0.0,0.0
282,1695726246048,-0.15429688,0.13085938,0.9248047,-0.25,0.28125,0.40625,0.0,0.0,0.0
283,1695726246088,-0.15625,0.13085938,0.9316406,-0.375,-0.15625,0.40625,0.0,0.0,0.0
284,1695726246126,-0.15820312,0.13574219,0.9472656,0.0625,0.15625,0.40625,0.0,0.0,0.0
285,1695726246168,-0.15429688,0.12597656,0.93066406,0.25,-0.375,0.40625,0.0,0.0,0.0
286,1695726246249,-0.16210938,0.13574219,0.94628906,-0.25,0.21875,0.34375,0.0,0.0,0.0
287,1695726246251,-0.15917969,0.13476562,0.9248047,0.0625,-0.09375,0.34375,0.0,0.0,0.0
288,1695726246286,-0.16601562,0.13183594,0.9423828,-0.125,0.09375,0.28125,0.0,0.0,0.0
289,1695726246326,-0.15917969,0.13671875,0.9345703,0.25,0.40625,0.40625,0.0,0.0,0.0
290,1695726246368,-0.171875,0.13085938,0.9326172,-0.4375,0.15625,0.65625,0.0,0.0,0.0
291,1695726246409,-0.16210938,0.13769531,0.93359375,-0.1875,0.40625,0.46875,0.0,0.0,0.0
292,1695726246448,-0.16308594,0.13769531,0.921875,-0.125,-0.03125,0.40625,0.0,0.0,0.0
293,1695726246487,-0.16992188,0.13085938,0.9267578,-0.5,0.03125,0.40625,-43.8125,-16.1875,-89.625
294,1695726246528,-0.16503906,0.12988281,0.921875,-0.1875,0.15625,0.40625,0.0,0.0,0.0
295,1695726246567,-0.16796875,0.1328125,0.9326172,-0.125,0.21875,0.40625,0.0,0.0,0.0
296,1695726246616,-0.16015625,0.13183594,0.9316406,-0.125,0.40625,0.59375,0.0,0.0,0.0
297,1695726246648,-0.15722656,0.12988281,0.9375,-0.3125,0.40625,0.53125,0.0,0.0,0.0
298,1695726246688,-0.1640625,0.13671875,0.9316406,-0.25,0.09375,0.28125,0.0,0.0,0.0
299,1695726246729,-0.16210938,0.12988281,0.94140625,-0.5,0.21875,0.46875,0.0,0.0,0.0
300,1695726246768,-0.16308594,0.11816406,0.953125,-0.3125,-0.09375,0.40625,0.0,0.0,0.0
301,1695726246809,-0.16601562,0.12988281,0.921875,-0.3125,-0.03125,0.46875,0.0,0.0,0.0
302,1695726246847,-0.16601562,0.12792969,0.9472656,-0.4375,0.15625,0.53125,0.0,0.0,0.0
303,1695726246887,-0.16992188,0.12890625,0.95214844,-0.3125,0.03125,0.53125,0.0,0.0,0.0
304,1695726246931,-0.15722656,0.12988281,0.93652344,-0.0625,-0.21875,0.53125,0.0,0.0,0.0
305,1695726246987,-0.16503906,0.13183594,0.9580078,-0.3125,0.15625,0.53125,-44.375,-14.9375,-89.0
306,1695726247007,-0.15820312,0.12988281,0.94140625,-0.625,0.03125,0.46875,0.0,0.0,0.0
307,1695726247047,-0.16796875,0.12988281,0.94433594,-0.125,0.09375,0.34375,0.0,0.0,0.0
308,1695726247087,-0.16894531,0.13574219,0.9404297,-0.6875,0.09375,0.40625,0.0,0.0,0.0
309,1695726247128,-0.16015625,0.12597656,0.9277344,-0.96875,0.21875,0.46875,0.0,0.0,0.0
310,1695726247169,-0.16503906,0.13476562,0.9501953,-0.25,0.28125,0.46875,0.0,0.0,0.0
311,1695726247209,-0.16601562,0.12988281,0.93359375,-0.375,0.03125,0.40625,0.0,0.0,0.0
312,1695726247248,-0.17382812,0.12988281,0.9326172,-0.5625,-0.03125,0.46875,0.0,0.0,0.0
313,1695726247287,-0.15820312,0.13574219,0.9296875,-0.375,-0.09375,0.34375,0.0,0.0,0.0
314,1695726247329,-0.16503906,0.13085938,0.92871094,-0.3125,0.03125,0.40625,0.0,0.0,0.0
315,1695726247368,-0.15917969,0.12890625,0.9394531,-0.3125,0.21875,0.46875,0.0,0.0,0.0
316,1695726247427,-0.16601562,0.13378906,0.9345703,-0.75,0.34375,0.46875,0.0,0.0,0.0
317,1695726247451,-0.16992188,0.12597656,0.9345703,-0.5625,0.21875,0.59375,0.0,0.0,0.0
318,1695726247490,-0.16796875,0.12890625,0.9277344,-0.4375,0.03125,0.46875,-46.0625,-15.5625,-87.5
319,1695726247527,-0.16015625,0.125,0.9316406,-0.3125,-0.03125,0.40625,0.0,0.0,0.0
320,1695726247567,-0.1640625,0.13671875,0.9248047,-0.5625,-0.09375,0.46875,0.0,0.0,0.0
321,1695726247611,-0.16015625,0.12207031,0.94628906,-0.375,0.28125,0.34375,0.0,0.0,0.0
322,1695726247649,-0.16796875,0.12402344,0.9423828,-0.5625,0.21875,0.53125,0.0,0.0,0.0
323,1695726247687,-0.1640625,0.12597656,0.9345703,0.0,0.15625,0.40625,0.0,0.0,0.0
324,1695726247747,-0.16796875,0.12792969,0.93847656,-0.25,0.15625,0.34375,0.0,0.0,0.0
325,1695726247767,-0.16210938,0.12597656,0.9423828,-0.4375,-0.03125,0.59375,0.0,0.0,0.0
326,1695726247807,-0.16796875,0.12207031,0.9501953,-0.3125,0.09375,0.21875,0.0,0.0,0.0
327,1695726247848,-0.16015625,0.13183594,0.9375,-0.0625,0.09375,0.34375,0.0,0.0,0.0
328,1695726247888,-0.16308594,0.12890625,0.9345703,-0.25,0.03125,0.40625,0.0,0.0,0.0
329,1695726247928,-0.17382812,0.12695312,0.9433594,-0.1875,0.03125,0.40625,0.0,0.0,0.0
330,1695726247967,-0.15917969,0.12792969,0.9316406,0.0625,-0.0625,-0.0625,-43.625,-15.6875,-87.625
331,1695726248011,-0.16210938,0.12988281,0.9267578,0.125,0.0,0.0,0.0,0.0,0.0
332,1695726248048,-0.16503906,0.12695312,0.94628906,0.125,0.0625,0.0625,0.0,0.0,0.0
333,1695726248088,-0.16601562,0.12695312,0.9394531,0.0625,-0.0625,0.0625,0.0,0.0,0.0
334,1695726248129,-0.16503906,0.13085938,0.94433594,0.1875,0.0,-0.125,0.0,0.0,0.0
335,1695726248168,-0.15917969,0.12695312,0.921875,0.1875,-0.125,0.0,0.0,0.0,0.0
336,1695726248208,-0.16894531,0.12890625,0.93652344,-0.125,-0.0625,0.0,0.0,0.0,0.0
337,1695726248248,-0.16503906,0.12792969,0.92578125,0.0,-0.0625,-0.125,0.0,0.0,0.0
338,1695726248288,-0.16503906,0.13378906,0.94140625,-0.4375,0.0,0.0,0.0,0.0,0.0
339,1695726248328,-0.16113281,0.123046875,0.9267578,0.125,0.0625,0.0625,0.0,0.0,0.0
340,1695726248368,-0.16503906,0.12597656,0.9394531,0.34375,-0.1875,-0.0625,0.0,0.0,0.0
341,1695726248408,-0.15625,0.12988281,0.9296875,0.0,-0.1875,0.0,0.0,0.0,0.0
342,1695726248448,-0.16992188,0.12988281,0.9375,-0.0625,-0.125,-0.125,0.0,0.0,0.0
343,1695726248508,-0.1640625,0.13476562,0.9423828,0.0625,-0.0625,0.0,-45.125,-14.9375,-89.0
344,1695726248548,-0.17089844,0.12988281,0.94140625,0.125,-0.0625,-0.1875,0.0,0.0,0.0
345,1695726248567,-0.15527344,0.12011719,0.9326172,0.34375,0.0625,-0.125,0.0,0.0,0.0
346,1695726248608,-0.16503906,0.12402344,0.9326172,0.125,-0.3125,0.125,0.0,0.0,0.0
347,1695726248648,-0.16210938,0.12988281,0.9472656,0.40625,-0.3125,-0.21875,0.0,0.0,0.0
348,1695726248688,-0.16992188,0.12890625,0.9404297,0.3125,-0.1875,0.0,0.0,0.0,0.0
349,1695726248729,-0.16308594,0.12402344,0.94628906,0.34375,0.0,-0.125,0.0,0.0,0.0
350,1695726248768,-0.15917969,0.12011719,0.9404297,0.34375,0.0625,0.125,0.0,0.0,0.0
351,1695726248808,-0.15917969,0.12695312,0.9394531,0.25,0.0625,-0.0625,0.0,0.0,0.0
352,1695726248848,-0.16601562,0.13183594,0.93652344,0.125,0.1875,0.0625,0.0,0.0,0.0
353,1695726248887,-0.16308594,0.12597656,0.9423828,0.40625,0.0,-0.125,0.0,0.0,0.0
354,1695726248928,-0.16210938,0.12402344,0.9423828,0.34375,-0.0625,-0.0625,0.0,0.0,0.0
355,1695726248967,-0.17675781,0.12597656,0.92285156,0.0625,0.125,-0.21875,-46.0625,-16.625,-87.8125
356,1695726249031,-0.16601562,0.12890625,0.94628906,0.40625,-0.125,-0.125,0.0,0.0,0.0
357,1695726249047,-0.17089844,0.13085938,0.9423828,0.125,0.0,-0.125,0.0,0.0,0.0
358,1695726249088,-0.16308594,0.12597656,0.9375,0.125,0.0625,0.0,0.0,0.0,0.0
359,1695726249128,-0.16699219,0.12207031,0.9277344,0.0,-0.0625,0.0,0.0,0.0,0.0
360,1695726249168,-0.15820312,0.12695312,0.9316406,0.125,0.0,0.0,0.0,0.0,0.0
361,1695726249211,-0.1640625,0.12988281,0.9375,0.0,0.0,0.125,0.0,0.0,0.0
362,1695726249268,-0.16113281,0.13085938,0.9277344,0.1875,0.0625,0.0,0.0,0.0,0.0
363,1695726249289,-0.16113281,0.12402344,0.9326172,0.125,0.1875,-0.0625,0.0,0.0,0.0
364,1695726249328,-0.17382812,0.13183594,0.9511719,0.0625,-0.0625,-0.0625,0.0,0.0,0.0
365,1695726249367,-0.16601562,0.13183594,0.93847656,0.0625,-0.0625,0.0,0.0,0.0,0.0
366,1695726249414,-0.16503906,0.13378906,0.9375,0.125,0.0,-0.125,0.0,0.0,0.0
367,1695726249447,-0.16308594,0.12988281,0.9453125,-0.0625,-0.0625,0.0,0.0,0.0,0.0
368,1695726249487,-0.16699219,0.12597656,0.9267578,-0.375,0.125,-0.0625,-46.375,-16.1875,-88.875
369,1695726249530,-0.16992188,0.12890625,0.9316406,0.53125,-0.25,0.0,0.0,0.0,0.0
370,1695726249568,-0.15722656,0.12109375,0.94921875,0.53125,0.0,0.0625,0.0,0.0,0.0
371,1695726249608,-0.17382812,0.1328125,0.93066406,0.25,-0.1875,0.0625,0.0,0.0,0.0
372,1695726249648,-0.16113281,0.13378906,0.93652344,-0.1875,-0.0625,-0.0625,0.0,0.0,0.0
373,1695726249693,-0.16992188,0.13574219,0.9394531,0.125,-0.1875,-0.125,0.0,0.0,0.0
374,1695726249728,-0.16601562,0.123046875,0.9355469,0.1875,-0.0625,-0.1875,0.0,0.0,0.0
375,1695726249767,-0.16796875,0.12890625,0.9423828,-0.0625,-0.0625,0.0,0.0,0.0,0.0
376,1695726249828,-0.16601562,0.13378906,0.9482422,0.0625,-0.25,0.3125,0.0,0.0,0.0
377,1695726249848,-0.16113281,0.125,0.93847656,0.40625,0.0,0.0,0.0,0.0,0.0
378,1695726249889,-0.16992188,0.13085938,0.9423828,0.0625,0.1875,0.25,0.0,0.0,0.0
379,1695726249948,-0.17089844,0.13085938,0.9423828,-0.5,-0.0625,-0.0625,0.0,0.0,0.0
380,1695726249968,-0.16113281,0.13183594,0.9326172,0.46875,0.0,-0.21875,-44.6875,-14.1875,-89.4375
381,1695726250029,-0.17285156,0.12695312,0.9375,-0.1875,0.125,-0.125,0.0,0.0,0.0
382,1695726250048,-0.15917969,0.12792969,0.9423828,-0.1875,-0.1875,-0.21875,0.0,0.0,0.0
383,1695726250089,-0.16113281,0.13476562,0.93359375,0.0625,-0.0625,-0.125,0.0,0.0,0.0
384,1695726250148,-0.16699219,0.13183594,0.93847656,0.0625,-0.0625,-0.0625,0.0,0.0,0.0
385,1695726250168,-0.15820312,0.125,0.93847656,-0.3125,-0.3125,-0.0625,0.0,0.0,0.0
386,1695726250212,-0.16308594,0.13378906,0.94433594,-0.4375,-0.0625,-0.0625,0.0,0.0,0.0
387,1695726250246,-0.16503906,0.123046875,0.93652344,-0.3125,0.125,-0.125,0.0,0.0,0.0
388,1695726250290,-0.171875,0.12890625,0.9394531,-0.6875,-0.1875,0.0625,0.0,0.0,0.0
389,1695726250330,-0.17089844,0.12792969,0.9472656,-0.125,-0.1875,-0.0625,0.0,0.0,0.0
390,1695726250368,-0.16113281,0.12890625,0.9355469,-0.1875,-0.1875,0.0625,0.0,0.0,0.0
391,1695726250410,-0.16210938,0.12207031,0.9404297,-0.5,-0.0625,0.0625,0.0,0.0,0.0
392,1695726250466,-0.16992188,0.12597656,0.93652344,-0.3125,0.0,0.0,0.0,0.0,0.0
393,1695726250488,-0.16113281,0.12207031,0.93359375,-0.25,0.0,0.0625,-44.375,-16.75,-88.6875
394,1695726250527,-0.16796875,0.12792969,0.9326172,-0.0625,0.0,0.0625,0.0,0.0,0.0
395,1695726250567,-0.15917969,0.12792969,0.9394531,-0.375,0.125,0.0,0.0,0.0,0.0
396,1695726250607,-0.16699219,0.12109375,0.9267578,-0.875,0.1875,-0.0625,0.0,0.0,0.0
397,1695726250649,-0.16015625,0.12597656,0.94628906,-0.125,0.0,0.0625,0.0,0.0,0.0
398,1695726250688,-0.15722656,0.123046875,0.93652344,0.125,-0.125,0.0,0.0,0.0,0.0
399,1695726250728,-0.16894531,0.12011719,0.93847656,-0.0625,-0.4375,0.0,0.0,0.0,0.0
400,1695726250787,-0.17089844,0.12402344,0.9345703,-0.125,-0.3125,-0.125,0.0,0.0,0.0
401,1695726250808,-0.1640625,0.12792969,0.9394531,0.0,-0.4375,-0.21875,0.0,0.0,0.0
402,1695726250848,-0.16308594,0.1171875,0.9326172,0.0625,-0.4375,-0.1875,0.0,0.0,0.0
403,1695726250888,-0.15820312,0.12402344,0.9423828,0.0,-0.3125,-0.125,0.0,0.0,0.0
404,1695726250929,-0.16113281,0.12597656,0.94628906,0.125,-0.4375,0.0625,0.0,0.0,0.0
405,1695726250967,-0.16796875,0.12890625,0.93652344,0.40625,-0.5625,0.0,-45.4375,-14.6875,-87.625
406,1695726251010,-0.16210938,0.12597656,0.9433594,0.125,-0.3125,-0.0625,0.0,0.0,0.0
407,1695726251047,-0.16699219,0.12695312,0.9248047,0.0625,-0.3125,0.0,0.0,0.0,0.0
408,1695726251088,-0.16308594,0.12792969,0.9560547,0.0625,-0.125,0.1875,0.0,0.0,0.0
409,1695726251129,-0.1640625,0.12402344,0.93066406,0.0,0.0,0.1875,0.0,0.0,0.0
410,1695726251167,-0.16210938,0.12011719,0.9404297,0.125,-0.0625,-0.0625,0.0,0.0,0.0
411,1695726251208,-0.16601562,0.12011719,0.93652344,0.25,-0.1875,-0.21875,0.0,0.0,0.0
412,1695726251247,-0.1640625,0.1171875,0.93652344,0.0625,-0.0625,-0.125,0.0,0.0,0.0
413,1695726251288,-0.1640625,0.12890625,0.94140625,0.1875,0.0,-0.125,0.0,0.0,0.0
414,1695726251328,-0.1640625,0.12695312,0.9375,0.1875,0.0,0.0,0.0,0.0,0.0
415,1695726251368,-0.171875,0.115234375,0.9423828,0.0625,-0.0625,0.0,0.0,0.0,0.0
416,1695726251408,-0.16894531,0.12695312,0.94433594,-0.0625,-0.125,0.0625,0.0,0.0,0.0
417,1695726251448,-0.171875,0.12890625,0.92578125,0.125,-0.125,0.0625,0.0,0.0,0.0
418,1695726251488,-0.16210938,0.12207031,0.9404297,0.0625,-0.125,-0.0625,-45.625,-15.875,-86.75
419,1695726251548,-0.16308594,0.12402344,0.9345703,0.0625,-0.0625,-0.125,0.0,0.0,0.0
420,1695726251567,-0.17089844,0.12890625,0.94140625,0.125,0.0,-0.125,0.0,0.0,0.0
421,1695726251608,-0.16113281,0.12402344,0.9375,0.125,-0.0625,-0.125,0.0,0.0,0.0
422,1695726251648,-0.16015625,0.125,0.9267578,0.0625,0.0,0.0625,0.0,0.0,0.0
423,1695726251689,-0.17480469,0.12597656,0.9248047,-0.0625,-0.25,0.0,0.0,0.0,0.0
424,1695726251728,-0.16015625,0.12402344,0.9423828,0.0,-0.1875,-0.125,0.0,0.0,0.0
425,1695726251767,-0.16113281,0.123046875,0.9199219,-0.0625,0.125,-0.0625,0.0,0.0,0.0
426,1695726251808,-0.16992188,0.12695312,0.93847656,-0.0625,-0.25,0.1875,0.0,0.0,0.0
427,1695726251848,-0.16113281,0.12695312,0.9394531,0.34375,-0.125,-0.125,0.0,0.0,0.0
428,1695726251886,-0.15234375,0.12597656,0.9345703,0.65625,-0.4375,-0.1875,0.0,0.0,0.0
429,1695726251927,-0.16113281,0.125,0.9355469,0.25,-0.25,-0.21875,0.0,0.0,0.0
430,1695726251967,-0.16992188,0.123046875,0.9316406,0.0625,-0.1875,-0.0625,-44.6875,-15.25,-88.375
431,1695726252009,-0.16503906,0.12011719,0.9375,0.3125,-0.125,-0.21875,0.0,0.0,0.0
432,1695726252048,-0.16894531,0.12597656,0.9326172,0.65625,0.0,-0.1875,0.0,0.0,0.0
433,1695726252086,-0.16699219,0.1328125,0.94140625,-0.0625,-0.25,0.0625,0.0,0.0,0.0
434,1695726252129,-0.16503906,0.119140625,0.93652344,0.125,0.0,0.0,0.0,0.0,0.0
435,1695726252167,-0.15429688,0.12792969,0.9423828,0.53125,-0.25,0.0,0.0,0.0,0.0
436,1695726252208,-0.1640625,0.125,0.9277344,0.0625,-0.0625,0.125,0.0,0.0,0.0
437,1695726252247,-0.16210938,0.12011719,0.9472656,0.125,0.0,-0.0625,0.0,0.0,0.0
438,1695726252308,-0.16894531,0.1171875,0.93652344,0.40625,0.125,-0.0625,0.0,0.0,0.0
439,1695726252329,-0.15820312,0.12792969,0.94140625,0.125,0.125,0.0625,0.0,0.0,0.0
440,1695726252368,-0.1640625,0.12402344,0.9277344,0.25,0.0625,0.0,0.0,0.0,0.0
441,1695726252410,-0.16113281,0.12597656,0.92578125,0.3125,0.0625,-0.21875,0.0,0.0,0.0
442,1695726252455,-0.16308594,0.12988281,0.93359375,0.25,0.0,-0.0625,0.0,0.0,0.0
443,1695726252488,-0.16992188,0.13476562,0.92871094,0.1875,-0.125,-0.1875,-45.125,-15.6875,-87.9375
444,1695726252528,-0.16210938,0.13085938,0.9433594,0.0625,-0.125,0.0,0.0,0.0,0.0
445,1695726252568,-0.16992188,0.125,0.94140625,0.0625,-0.0625,0.0,0.0,0.0,0.0
446,1695726252607,-0.16796875,0.123046875,0.94140625,0.0625,-0.1875,-0.0625,0.0,0.0,0.0
447,1695726252647,-0.16992188,0.12011719,0.9394531,0.0,0.0,0.0625,0.0,0.0,0.0
448,1695726252687,-0.16015625,0.125,0.9355469,0.0,-0.125,-0.0625,0.0,0.0,0.0
449,1695726252728,-0.1640625,0.12402344,0.9316406,0.3125,-0.0625,0.0,0.0,0.0,0.0
450,1695726252767,-0.16796875,0.13378906,0.9375,0.125,0.0,-0.0625,0.0,0.0,0.0
451,1695726252807,-0.16210938,0.12597656,0.9394531,0.0625,0.0,0.0625,0.0,0.0,0.0
452,1695726252846,-0.16699219,0.123046875,0.9375,-0.0625,0.0,-0.125,0.0,0.0,0.0
453,1695726252889,-0.16992188,0.123046875,0.92578125,-0.0625,-0.0625,0.0625,0.0,0.0,0.0
454,1695726252927,-0.16796875,0.12011719,0.9404297,0.125,-0.1875,0.1875,0.0,0.0,0.0
455,1695726252970,-0.16308594,0.12011719,0.9326172,-0.1875,-0.1875,0.0625,-45.875,-14.1875,-89.0
456,1695726253008,-0.16601562,0.12890625,0.9277344,-0.5,-0.0625,0.0,0.0,0.0,0.0
457,1695726253069,-0.17089844,0.1171875,0.9394531,-0.5,-0.1875,-0.1875,0.0,0.0,0.0
458,1695726253087,-0.17382812,0.12988281,0.9394531,-0.4375,-0.1875,0.125,0.0,0.0,0.0
459,1695726253128,-0.16601562,0.12011719,0.9345703,-0.0625,-0.125,-0.1875,0.0,0.0,0.0
460,1695726253166,-0.15917969,0.12792969,0.9404297,-0.1875,-0.375,-0.0625,0.0,0.0,0.0
461,1695726253207,-0.16796875,0.1171875,0.9433594,-0.375,0.0,0.125,0.0,0.0,0.0
462,1695726253247,-0.16601562,0.12109375,0.93066406,-0.375,-0.375,0.0625,0.0,0.0,0.0
463,1695726253288,-0.16308594,0.125,0.9345703,-0.125,-0.375,-0.0625,0.0,0.0,0.0
464,1695726253327,-0.16503906,0.123046875,0.9326172,-0.25,-0.1875,-0.21875,0.0,0.0,0.0
465,1695726253368,-0.16503906,0.12402344,0.9472656,-0.1875,-0.3125,0.0,0.0,0.0,0.0
466,1695726253407,-0.1640625,0.11621094,0.93847656,-0.25,-0.125,-0.125,0.0,0.0,0.0
467,1695726253448,-0.16894531,0.12207031,0.9316406,0.0,-0.375,-0.125,0.0,0.0,0.0
468,1695726253488,-0.16210938,0.1328125,0.94140625,-0.125,-0.125,-0.1875,-44.6875,-16.75,-88.375
469,1695726253526,-0.15917969,0.11816406,0.92871094,-0.375,-0.125,-0.0625,0.0,0.0,0.0
470,1695726253567,-0.16894531,0.1171875,0.93652344,-0.25,-0.3125,-0.1875,0.0,0.0,0.0
471,1695726253609,-0.16503906,0.125,0.94140625,0.0625,-0.25,-0.0625,0.0,0.0,0.0
472,1695726253648,-0.16601562,0.115234375,0.9404297,-0.1875,-0.125,-0.0625,0.0,0.0,0.0
473,1695726253708,-0.16210938,0.123046875,0.9267578,-0.375,0.0,-0.0625,0.0,0.0,0.0
474,1695726253726,-0.16015625,0.12207031,0.93847656,0.0625,-0.1875,-0.125,0.0,0.0,0.0
475,1695726253768,-0.1640625,0.12207031,0.9404297,-0.0625,0.0,0.125,0.0,0.0,0.0
476,1695726253827,-0.16601562,0.12207031,0.9394531,-0.5625,0.0,0.0,0.0,0.0,0.0
477,1695726253847,-0.16015625,0.111328125,0.9345703,-0.5625,-0.0625,-0.0625,0.0,0.0,0.0
478,1695726253889,-0.16503906,0.1171875,0.94628906,-0.0625,0.0625,0.0,0.0,0.0,0.0
479,1695726253928,-0.16796875,0.11621094,0.9316406,0.0625,-0.1875,-0.125,0.0,0.0,0.0
480,1695726253968,-0.16113281,0.12792969,0.9326172,-0.125,-0.125,-0.125,-44.125,-16.75,-88.375
481,1695726254008,-0.16992188,0.12109375,0.9326172,0.125,-0.3125,-0.21875,0.0,0.0,0.0
482,1695726254048,-0.171875,0.119140625,0.93847656,0.0,-0.3125,-0.1875,0.0,0.0,0.0
483,1695726254090,-0.16308594,0.12597656,0.93847656,-0.125,-0.3125,0.0,0.0,0.0,0.0
484,1695726254127,-0.16210938,0.123046875,0.9345703,0.0,-0.125,0.0,0.0,0.0,0.0
485,1695726254167,-0.17285156,0.12207031,0.96191406,0.53125,-0.1875,0.0625,0.0,0.0,0.0
486,1695726254207,-0.16503906,0.11621094,0.9404297,0.25,-0.4375,0.0,0.0,0.0,0.0
487,1695726254248,-0.17089844,0.119140625,0.94433594,-0.125,-0.1875,0.0,0.0,0.0,0.0
488,1695726254287,-0.16601562,0.11816406,0.93652344,0.125,-0.25,-0.0625,0.0,0.0,0.0
489,1695726254333,-0.16699219,0.11425781,0.9375,0.1875,-0.125,-0.21875,0.0,0.0,0.0
490,1695726254373,-0.16308594,0.123046875,0.9375,0.0625,0.0625,0.0625,0.0,0.0,0.0
491,1695726254407,-0.16503906,0.11816406,0.9423828,0.3125,0.0,0.125,0.0,0.0,0.0
492,1695726254454,-0.16894531,0.115234375,0.94140625,0.1875,0.21875,-0.03125,0.0,0.0,0.0
493,1695726254491,-0.15332031,0.12011719,0.9404297,0.0625,0.03125,-0.03125,-44.6875,-14.1875,-89.4375
494,1695726254527,-0.16601562,0.12597656,0.9316406,0.3125,-0.03125,-0.15625,0.0,0.0,0.0
495,1695726254588,-0.17382812,0.11621094,0.93847656,0.3125,0.15625,-0.09375,0.0,0.0,0.0
496,1695726254607,-0.16796875,0.125,0.9404297,0.25,-0.03125,0.09375,0.0,0.0,0.0
497,1695726254647,-0.16308594,0.12109375,0.9394531,0.25,0.15625,0.09375,0.0,0.0,0.0
498,1695726254689,-0.16894531,0.111328125,0.9472656,0.125,0.09375,0.03125,0.0,0.0,0.0
499,1695726254728,-0.16503906,0.11035156,0.93359375,0.125,0.28125,0.09375,0.0,0.0,0.0
500,1695726254788,-0.16210938,0.12597656,0.94140625,0.1875,0.15625,0.15625,0.0,0.0,0.0
501,1695726254808,-0.16503906,0.12597656,0.92578125,-0.0625,0.28125,0.09375,0.0,0.0,0.0
502,1695726254848,-0.17578125,0.1171875,0.9433594,-0.1875,0.28125,-0.03125,0.0,0.0,0.0
503,1695726254888,-0.16796875,0.123046875,0.9423828,-0.25,0.28125,-0.03125,0.0,0.0,0.0
504,1695726254930,-0.16308594,0.12402344,0.9423828,0.375,0.28125,-0.09375,0.0,0.0,0.0
505,1695726254971,-0.15917969,0.12109375,0.9267578,0.78125,-0.28125,-0.09375,-45.125,-16.0,-89.0
506,1695726255008,-0.16601562,0.11816406,0.9404297,0.5625,-0.09375,-0.03125,0.0,0.0,0.0
507,1695726255048,-0.17382812,0.11425781,0.9238281,-0.25,-0.46875,-0.03125,0.0,0.0,0.0
508,1695726255090,-0.16210938,0.11230469,0.9404297,0.125,0.03125,0.03125,0.0,0.0,0.0
509,1695726255127,-0.16210938,0.12207031,0.93847656,0.84375,0.21875,-0.15625,0.0,0.0,0.0
510,1695726255175,-0.15625,0.123046875,0.94140625,0.3125,-0.03125,0.09375,0.0,0.0,0.0
511,1695726255208,-0.16699219,0.12597656,0.9472656,0.0,0.09375,-0.03125,0.0,0.0,0.0
512,1695726255248,-0.15820312,0.11621094,0.9345703,0.6875,-0.09375,-0.15625,0.0,0.0,0.0
513,1695726255291,-0.16015625,0.12011719,0.92871094,0.25,0.40625,-0.09375,0.0,0.0,0.0
514,1695726255349,-0.17285156,0.12207031,0.9326172,0.5,0.21875,-0.15625,0.0,0.0,0.0
515,1695726255370,-0.16796875,0.12109375,0.9423828,0.78125,0.15625,-0.09375,0.0,0.0,0.0
516,1695726255409,-0.17382812,0.1171875,0.9404297,0.5625,0.40625,0.15625,0.0,0.0,0.0
517,1695726255448,-0.16601562,0.12402344,0.9248047,0.1875,0.15625,0.09375,0.0,0.0,0.0
518,1695726255496,-0.16308594,0.11816406,0.93359375,0.25,0.28125,-0.03125,-43.625,-15.6875,-88.6875
519,1695726255526,-0.16796875,0.119140625,0.9482422,0.625,0.15625,-0.09375,0.0,0.0,0.0
520,1695726255570,-0.17089844,0.11816406,0.9433594,0.125,0.21875,-0.03125,0.0,0.0,0.0
521,1695726255612,-0.16894531,0.12695312,0.9404297,0.125,0.03125,-0.03125,0.0,0.0,0.0
522,1695726255669,-0.16503906,0.119140625,0.93359375,0.4375,0.15625,-0.09375,0.0,0.0,0.0
523,1695726255688,-0.16601562,0.123046875,0.93847656,0.0625,0.03125,-0.03125,0.0,0.0,0.0
524,1695726255728,-0.16894531,0.11816406,0.9433594,-0.125,0.21875,-0.03125,0.0,0.0,0.0
525,1695726255768,-0.16992188,0.125,0.9375,0.0625,0.40625,-0.03125,0.0,0.0,0.0
526,1695726255808,-0.16113281,0.12207031,0.95703125,0.1875,0.28125,0.03125,0.0,0.0,0.0
527,1695726255848,-0.16992188,0.12402344,0.94628906,0.25,0.28125,0.09375,0.0,0.0,0.0
528,1695726255888,-0.15917969,0.11621094,0.9482422,0.375,-0.03125,-0.09375,0.0,0.0,0.0
529,1695726255927,-0.171875,0.123046875,0.9316406,-0.125,0.15625,-0.15625,0.0,0.0,0.0
530,1695726255968,-0.16210938,0.11621094,0.93359375,-0.375,-0.03125,-0.03125,-45.0,-16.1875,-87.1875
531,1695726256008,-0.17480469,0.12011719,0.94921875,0.125,-0.15625,-0.25,0.0,0.0,0.0
532,1695726256050,-0.16601562,0.12207031,0.9394531,0.125,0.28125,0.03125,0.0,0.0,0.0
533,1695726256108,-0.16894531,0.115234375,0.94140625,-0.25,-0.03125,0.15625,0.0,0.0,0.0
534,1695726256128,-0.16699219,0.12011719,0.9277344,-0.5,0.03125,0.09375,0.0,0.0,0.0
535,1695726256168,-0.15625,0.125,0.9404297,-0.25,-0.15625,0.09375,0.0,0.0,0.0
536,1695726256208,-0.1640625,0.1171875,0.9394531,0.1875,-0.28125,-0.09375,0.0,0.0,0.0
537,1695726256247,-0.16015625,0.111328125,0.9345703,0.0,-0.40625,0.03125,0.0,0.0,0.0
538,1695726256288,-0.1640625,0.111328125,0.9472656,-0.1875,0.15625,0.15625,0.0,0.0,0.0
539,1695726256328,-0.17089844,0.12011719,0.94628906,0.0625,0.28125,-0.15625,0.0,0.0,0.0
540,1695726256368,-0.16503906,0.11816406,0.9472656,0.1875,0.28125,-0.15625,0.0,0.0,0.0
541,1695726256408,-0.16210938,0.11035156,0.9404297,0.125,0.21875,-0.09375,0.0,0.0,0.0
542,1695726256448,-0.15917969,0.119140625,0.9355469,0.125,0.28125,-0.03125,0.0,0.0,0.0
543,1695726256488,-0.1640625,0.119140625,0.94140625,0.0,0.28125,0.03125,-45.4375,-16.4375,-87.625
544,1695726256527,-0.16113281,0.12597656,0.93847656,0.0,0.40625,0.09375,0.0,0.0,0.0
545,1695726256567,-0.1640625,0.11816406,0.93847656,0.3125,0.15625,0.09375,0.0,0.0,0.0
546,1695726256608,-0.16503906,0.1171875,0.9345703,-0.0625,0.21875,0.03125,0.0,0.0,0.0
547,1695726256648,-0.171875,0.11035156,0.9296875,-0.25,0.03125,0.03125,0.0,0.0,0.0
548,1695726256688,-0.16503906,0.10253906,0.9326172,-0.1875,0.5,-0.15625,0.0,0.0,0.0
549,1695726256727,-0.16699219,0.125,0.9453125,0.3125,-0.28125,-0.03125,0.0,0.0,0.0
550,1695726256768,-0.16699219,0.11621094,0.9472656,0.5,0.28125,-0.09375,0.0,0.0,0.0
551,1695726256808,-0.16503906,0.123046875,0.9433594,0.25,0.03125,0.15625,0.0,0.0,0.0
552,1695726256867,-0.17675781,0.12207031,0.9453125,0.1875,-0.21875,-0.09375,0.0,0.0,0.0
553,1695726256888,-0.16699219,0.12597656,0.9423828,0.125,-0.28125,-0.09375,0.0,0.0,0.0
554,1695726256927,-0.17480469,0.115234375,0.94140625,0.5625,-0.15625,0.15625,0.0,0.0,0.0
555,1695726256967,-0.16015625,0.1171875,0.9404297,0.5,0.15625,-0.03125,-45.4375,-16.0,-89.4375
556,1695726257010,-0.16992188,0.115234375,0.9355469,0.125,-0.40625,0.15625,0.0,0.0,0.0
557,1695726257053,-0.16796875,0.12207031,0.9375,0.125,-0.28125,0.03125,0.0,0.0,0.0
558,1695726257087,-0.16601562,0.12207031,0.93652344,0.125,-0.53125,-0.03125,0.0,0.0,0.0
559,1695726257127,-0.16308594,0.115234375,0.9316406,-0.125,-0.21875,0.09375,0.0,0.0,0.0
560,1695726257172,-0.1640625,0.1171875,0.93847656,0.0,-0.15625,-0.03125,0.0,0.0,0.0
561,1695726257218,-0.16503906,0.11816406,0.9404297,-0.0625,-0.03125,0.03125,0.0,0.0,0.0
562,1695726257247,-0.16601562,0.11621094,0.9375,0.5625,-0.09375,0.09375,0.0,0.0,0.0
563,1695726257289,-0.16113281,0.11425781,0.93652344,0.375,0.09375,-0.03125,0.0,0.0,0.0
564,1695726257328,-0.16113281,0.115234375,0.9355469,0.125,-0.03125,0.03125,0.0,0.0,0.0
565,1695726257370,-0.16992188,0.11230469,0.9326172,0.0,-0.09375,-0.03125,0.0,0.0,0.0
566,1695726257409,-0.16210938,0.12988281,0.9404297,0.4375,-0.03125,-0.15625,0.0,0.0,0.0
567,1695726257449,-0.15917969,0.119140625,0.92871094,0.25,0.09375,-0.03125,0.0,0.0,0.0
568,1695726257489,-0.16796875,0.11816406,0.9453125,0.3125,0.03125,0.09375,-45.3125,-15.125,-89.125
569,1695726257529,-0.16308594,0.119140625,0.9326172,0.1875,0.09375,0.03125,0.0,0.0,0.0
570,1695726257569,-0.16796875,0.115234375,0.9423828,0.0625,0.15625,-0.03125,0.0,0.0,0.0
571,1695726257628,-0.16601562,0.119140625,0.94628906,-0.0625,-0.09375,0.09375,0.0,0.0,0.0
572,1695726257648,-0.16601562,0.115234375,0.94433594,0.125,0.09375,-0.03125,0.0,0.0,0.0
573,1695726257689,-0.16796875,0.11621094,0.9375,0.125,0.15625,0.09375,0.0,0.0,0.0
574,1695726257727,-0.16796875,0.11621094,0.9433594,0.0,-0.09375,0.15625,0.0,0.0,0.0
575,1695726257771,-0.16796875,0.115234375,0.93066406,0.125,0.03125,-0.03125,0.0,0.0,0.0
576,1695726257807,-0.16210938,0.11621094,0.9267578,0.25,-0.03125,-0.03125,0.0,0.0,0.0
577,1695726257850,-0.16503906,0.11621094,0.9394531,-0.25,0.15625,-0.09375,0.0,0.0,0.0
578,1695726257890,-0.16992188,0.11230469,0.94433594,-0.1875,0.21875,0.03125,0.0,0.0,0.0
579,1695726257927,-0.1640625,0.11816406,0.9453125,0.25,0.34375,0.03125,0.0,0.0,0.0
580,1695726257967,-0.15039062,0.12402344,0.9296875,0.125,-0.15625,0.21875,-44.375,-16.75,-89.4375
581,1695726258007,-0.1640625,0.12011719,0.9267578,-0.0625,0.03125,0.03125,0.0,0.0,0.0
582,1695726258048,-0.16601562,0.11816406,0.93652344,0.125,-0.03125,-0.15625,0.0,0.0,0.0
583,1695726258088,-0.16601562,0.119140625,0.9589844,0.1875,0.03125,-0.09375,0.0,0.0,0.0
584,1695726258126,-0.16308594,0.1171875,0.9453125,0.4375,0.21875,-0.09375,0.0,0.0,0.0
585,1695726258172,-0.16210938,0.11425781,0.9355469,0.25,0.03125,-0.03125,0.0,0.0,0.0
586,1695726258208,-0.16992188,0.1171875,0.9277344,0.1875,0.03125,0.09375,0.0,0.0,0.0
587,1695726258249,-0.171875,0.12597656,0.93847656,0.4375,-0.40625,-0.09375,0.0,0.0,0.0
588,1695726258287,-0.17089844,0.1171875,0.9248047,0.4375,-0.15625,-0.09375,0.0,0.0,0.0
589,1695726258327,-0.16894531,0.12207031,0.92871094,0.5,-0.09375,0.03125,0.0,0.0,0.0
590,1695726258387,-0.16503906,0.1171875,0.93652344,0.625,-0.15625,0.15625,0.0,0.0,0.0
591,1695726258407,-0.16992188,0.12011719,0.93847656,0.4375,-0.15625,0.09375,0.0,0.0,0.0
592,1695726258448,-0.16210938,0.11328125,0.9375,0.375,-0.09375,-0.09375,0.0,0.0,0.0
593,1695726258487,-0.1640625,0.12109375,0.9375,0.125,0.03125,-0.03125,-45.3125,-15.5625,-88.5625
594,1695726258528,-0.16308594,0.11621094,0.93359375,0.3125,0.15625,-0.03125,0.0,0.0,0.0
595,1695726258568,-0.16015625,0.11230469,0.9433594,0.3125,0.09375,0.09375,0.0,0.0,0.0
596,1695726258608,-0.15917969,0.115234375,0.9267578,0.375,0.21875,0.03125,0.0,0.0,0.0
597,1695726258647,-0.16113281,0.11621094,0.93359375,0.1875,0.15625,0.09375,0.0,0.0,0.0
598,1695726258688,-0.17480469,0.12011719,0.9433594,0.25,0.15625,-0.15625,0.0,0.0,0.0
599,1695726258727,-0.16113281,0.11816406,0.9355469,0.4375,0.09375,-0.15625,0.0,0.0,0.0
600,1695726258768,-0.17480469,0.123046875,0.9453125,0.375,0.21875,0.03125,0.0,0.0,0.0
601,1695726258808,-0.16210938,0.125,0.9404297,0.1875,0.21875,0.03125,0.0,0.0,0.0
602,1695726258847,-0.16894531,0.123046875,0.9423828,0.1875,0.21875,0.09375,0.0,0.0,0.0
603,1695726258888,-0.16308594,0.119140625,0.9326172,0.71875,-0.03125,-0.09375,0.0,0.0,0.0
604,1695726258928,-0.16894531,0.119140625,0.9394531,0.5625,0.03125,-0.15625,0.0,0.0,0.0
605,1695726258967,-0.17382812,0.123046875,0.94433594,0.3125,0.09375,0.03125,-45.875,-15.25,-89.0
606,1695726259036,-0.15332031,0.119140625,0.9404297,0.625,0.09375,0.03125,0.0,0.0,0.0
607,1695726259048,-0.16503906,0.11621094,0.9423828,0.3125,0.21875,0.03125,0.0,0.0,0.0
608,1695726259087,-0.17285156,0.11035156,0.95410156,0.1875,0.15625,0.03125,0.0,0.0,0.0
609,1695726259147,-0.15917969,0.119140625,0.94628906,-0.0625,0.15625,-0.03125,0.0,0.0,0.0
610,1695726259167,-0.171875,0.115234375,0.9345703,0.78125,0.15625,0.03125,0.0,0.0,0.0
611,1695726259208,-0.1640625,0.115234375,0.9433594,0.84375,-0.28125,-0.09375,0.0,0.0,0.0
612,1695726259249,-0.16503906,0.125,0.95410156,0.5,0.15625,0.03125,0.0,0.0,0.0
613,1695726259288,-0.17578125,0.1328125,0.93652344,0.3125,0.09375,-0.09375,0.0,0.0,0.0
614,1695726259327,-0.17089844,0.12011719,0.9326172,0.25,0.03125,-0.15625,0.0,0.0,0.0
615,1695726259368,-0.171875,0.123046875,0.9375,0.5625,0.15625,-0.09375,0.0,0.0,0.0
616,1695726259408,-0.17382812,0.12109375,0.9267578,0.5,0.34375,-0.09375,0.0,0.0,0.0
617,1695726259448,-0.16210938,0.12109375,0.93359375,0.5625,0.03125,0.15625,0.0,0.0,0.0
618,1695726259488,-0.16992188,0.11621094,0.9423828,0.0625,-0.53125,0.15625,-45.125,-15.6875,-89.0
619,1695726259528,-0.16503906,0.12402344,0.9394531,0.25,-0.03125,0.15625,0.0,0.0,0.0
620,1695726259568,-0.1640625,0.12597656,0.92871094,0.3125,0.15625,-0.09375,0.0,0.0,0.0
621,1695726259609,-0.16503906,0.12695312,0.9404297,0.1875,0.40625,-0.03125,0.0,0.0,0.0
622,1695726259647,-0.15527344,0.12109375,0.9267578,-0.3125,0.34375,0.21875,0.0,0.0,0.0
623,1695726259688,-0.15917969,0.115234375,0.9394531,0.1875,0.5,0.15625,0.0,0.0,0.0
624,1695726259727,-0.15625,0.12402344,0.9482422,0.375,0.34375,-0.15625,0.0,0.0,0.0
625,1695726259773,-0.16699219,0.1171875,0.94140625,0.125,0.21875,-0.09375,0.0,0.0,0.0
626,1695726259809,-0.15722656,0.12207031,0.95703125,0.1875,-0.28125,-0.25,0.0,0.0,0.0
627,1695726259850,-0.16699219,0.1171875,0.9482422,0.25,0.03125,-0.03125,0.0,0.0,0.0
628,1695726259907,-0.171875,0.12109375,0.9433594,-0.375,0.03125,0.09375,0.0,0.0,0.0
629,1695726259928,-0.16894531,0.123046875,0.9345703,0.0,0.03125,0.03125,0.0,0.0,0.0
630,1695726259968,-0.15820312,0.12597656,0.94628906,0.25,0.15625,0.09375,-46.375,-15.5625,-89.625
631,1695726260008,-0.16015625,0.1171875,0.93847656,0.25,0.03125,-0.09375,0.0,0.0,0.0
632,1695726260050,-0.16699219,0.115234375,0.9316406,0.3125,-0.15625,-0.03125,0.0,0.0,0.0
633,1695726260088,-0.17480469,0.11621094,0.94140625,0.5,-0.09375,-0.1875,0.0,0.0,0.0
634,1695726260128,-0.171875,0.109375,0.93847656,0.375,-0.03125,-0.03125,0.0,0.0,0.0
635,1695726260170,-0.16503906,0.12011719,0.93847656,0.1875,0.15625,0.03125,0.0,0.0,0.0
636,1695726260207,-0.1640625,0.12695312,0.93359375,0.125,0.28125,0.09375,0.0,0.0,0.0
637,1695726260247,-0.16503906,0.1171875,0.9345703,0.1875,0.15625,0.03125,0.0,0.0,0.0
638,1695726260290,-0.17675781,0.119140625,0.9453125,0.6875,0.28125,0.03125,0.0,0.0,0.0
639,1695726260327,-0.16015625,0.123046875,0.9394531,0.375,0.09375,-0.09375,0.0,0.0,0.0
640,1695726260370,-0.16992188,0.12011719,0.92089844,0.0,0.09375,-0.03125,0.0,0.0,0.0
641,1695726260408,-0.16210938,0.1171875,0.93359375,-0.0625,0.15625,-0.15625,0.0,0.0,0.0
642,1695726260468,-0.17480469,0.115234375,0.9394531,0.0625,-0.03125,-0.03125,0.0,0.0,0.0
643,1695726260488,-0.16015625,0.12011719,0.9375,0.3125,0.34375,0.03125,-45.0,-16.625,-88.25
644,1695726260528,-0.15917969,0.119140625,0.94628906,0.0625,-0.28125,0.09375,0.0,0.0,0.0
645,1695726260567,-0.17089844,0.123046875,0.92285156,0.25,0.21875,0.03125,0.0,0.0,0.0
646,1695726260606,-0.17089844,0.125,0.93359375,-0.1875,-0.15625,0.09375,0.0,0.0,0.0
647,1695726260667,-0.17285156,0.115234375,0.93359375,-0.25,-0.15625,0.09375,0.0,0.0,0.0
648,1695726260688,-0.16015625,0.12109375,0.9433594,-0.125,-0.03125,-0.09375,0.0,0.0,0.0
649,1695726260727,-0.16992188,0.109375,0.9550781,-0.25,0.15625,0.09375,0.0,0.0,0.0
650,1695726260775,-0.16894531,0.12011719,0.9433594,-0.4375,0.09375,0.15625,0.0,0.0,0.0
651,1695726260807,-0.17382812,0.11425781,0.9404297,0.0625,0.03125,0.03125,0.0,0.0,0.0
652,1695726260847,-0.16601562,0.1171875,0.9394531,-0.375,0.09375,-0.03125,0.0,0.0,0.0
653,1695726260888,-0.16601562,0.123046875,0.9472656,-0.5,0.09375,-0.03125,0.0,0.0,0.0
654,1695726260928,-0.16113281,0.1171875,0.9355469,-0.25,-0.21875,-0.09375,0.0,0.0,0.0
655,1695726260968,-0.16601562,0.115234375,0.9423828,-0.375,0.15625,0.03125,-45.125,-16.0,-89.4375
656,1695726261008,-0.16699219,0.10839844,0.9453125,-0.4375,0.15625,0.09375,0.0,0.0,0.0
657,1695726261048,-0.15917969,0.11425781,0.9375,-0.0625,0.03125,-0.03125,0.0,0.0,0.0
658,1695726261088,-0.17480469,0.111328125,0.92089844,0.0625,0.15625,-0.09375,0.0,0.0,0.0
659,1695726261128,-0.16796875,0.12011719,0.9316406,0.125,0.21875,-0.15625,0.0,0.0,0.0
660,1695726261168,-0.16601562,0.11816406,0.93066406,0.125,-0.03125,0.15625,0.0,0.0,0.0
661,1695726261208,-0.16308594,0.111328125,0.9345703,0.0,0.03125,0.15625,0.0,0.0,0.0
662,1695726261248,-0.1640625,0.10839844,0.93652344,0.0625,0.09375,-0.09375,0.0,0.0,0.0
663,1695726261288,-0.16601562,0.11328125,0.9277344,-0.96875,0.34375,0.09375,0.0,0.0,0.0
664,1695726261328,-0.17285156,0.10449219,0.9482422,-0.25,0.15625,0.03125,0.0,0.0,0.0
665,1695726261368,-0.16113281,0.11328125,0.94140625,-0.0625,-0.03125,-0.09375,0.0,0.0,0.0
666,1695726261427,-0.16601562,0.115234375,0.9453125,0.0625,-0.15625,0.03125,0.0,0.0,0.0
667,1695726261447,-0.16308594,0.11621094,0.9423828,0.125,0.03125,-0.03125,0.0,0.0,0.0
668,1695726261488,-0.18066406,0.11816406,0.93066406,0.1875,-0.09375,-0.03125,-45.0,-16.625,-87.5
669,1695726261529,-0.16796875,0.11230469,0.9404297,0.125,-0.09375,-0.09375,0.0,0.0,0.0
670,1695726261569,-0.1640625,0.11425781,0.93652344,0.0625,0.09375,0.03125,0.0,0.0,0.0
671,1695726261608,-0.16894531,0.111328125,0.9394531,0.3125,0.28125,0.15625,0.0,0.0,0.0
672,1695726261648,-0.16601562,0.111328125,0.9394531,0.25,-0.09375,0.09375,0.0,0.0,0.0
673,1695726261688,-0.17089844,0.109375,0.95703125,0.25,0.03125,-0.03125,0.0,0.0,0.0
674,1695726261728,-0.171875,0.111328125,0.9296875,0.1875,-0.03125,-0.09375,0.0,0.0,0.0
675,1695726261768,-0.16796875,0.10839844,0.9433594,0.25,-0.03125,0.03125,0.0,0.0,0.0
676,1695726261807,-0.17089844,0.111328125,0.94921875,0.25,0.09375,0.03125,0.0,0.0,0.0
677,1695726261849,-0.17480469,0.1171875,0.9433594,0.375,0.15625,0.03125,0.0,0.0,0.0
678,1695726261888,-0.16894531,0.115234375,0.9345703,0.3125,-0.03125,0.03125,0.0,0.0,0.0
679,1695726261931,-0.16601562,0.109375,0.9277344,0.3125,0.03125,-0.09375,0.0,0.0,0.0
680,1695726261968,-0.16015625,0.11230469,0.92578125,0.3125,0.21875,-0.03125,-45.625,-17.375,-89.875
681,1695726262008,-0.16992188,0.11621094,0.92871094,0.3125,0.03125,-0.03125,0.0,0.0,0.0
682,1695726262049,-0.1640625,0.10644531,0.94433594,0.4375,0.09375,0.09375,0.0,0.0,0.0
683,1695726262088,-0.16894531,0.1171875,0.9238281,0.3125,-0.09375,-0.03125,0.0,0.0,0.0
684,1695726262128,-0.17382812,0.111328125,0.9267578,0.125,-0.09375,0.03125,0.0,0.0,0.0
685,1695726262188,-0.16503906,0.103515625,0.94433594,0.4375,0.15625,-0.15625,0.0,0.0,0.0
686,1695726262207,-0.16894531,0.11035156,0.95703125,0.125,0.09375,0.09375,0.0,0.0,0.0
687,1695726262249,-0.17675781,0.115234375,0.94433594,0.125,-0.03125,0.03125,0.0,0.0,0.0
688,1695726262288,-0.16601562,0.11816406,0.9394531,0.375,0.21875,0.09375,0.0,0.0,0.0
689,1695726262328,-0.16699219,0.115234375,0.94433594,0.125,0.03125,-0.03125,0.0,0.0,0.0
690,1695726262368,-0.18066406,0.119140625,0.93652344,0.0,0.21875,-0.03125,0.0,0.0,0.0
691,1695726262408,-0.17285156,0.119140625,0.94140625,0.125,-0.15625,0.03125,0.0,0.0,0.0
692,1695726262451,-0.16992188,0.1171875,0.9423828,0.84375,0.09375,-0.09375,0.0,0.0,0.0
693,1695726262488,-0.16601562,0.111328125,0.9423828,0.625,-0.40625,-0.09375,-45.3125,-16.9375,-90.1875
694,1695726262528,-0.16308594,0.111328125,0.9404297,0.1875,-0.03125,0.09375,0.0,0.0,0.0
695,1695726262580,-0.17089844,0.11621094,0.94433594,0.375,-0.21875,-0.03125,0.0,0.0,0.0
696,1695726262607,-0.17675781,0.1171875,0.94140625,0.375,-0.09375,-0.03125,0.0,0.0,0.0
697,1695726262647,-0.17675781,0.1171875,0.9511719,0.375,0.09375,-0.09375,0.0,0.0,0.0
698,1695726262688,-0.16601562,0.10644531,0.9375,0.0,0.21875,0.09375,0.0,0.0,0.0
699,1695726262728,-0.16503906,0.11230469,0.94921875,0.5,0.21875,0.09375,0.0,0.0,0.0
700,1695726262774,-0.16601562,0.109375,0.9433594,0.625,-0.34375,-0.15625,0.0,0.0,0.0
701,1695726262807,-0.17773438,0.109375,0.9345703,0.5,0.03125,0.03125,0.0,0.0,0.0
702,1695726262848,-0.16796875,0.11230469,0.9375,0.625,0.09375,0.03125,0.0,0.0,0.0
703,1695726262890,-0.16601562,0.125,0.9277344,0.90625,-0.03125,0.09375,0.0,0.0,0.0
704,1695726262947,-0.17285156,0.119140625,0.9423828,1.03125,-0.09375,-0.15625,0.0,0.0,0.0
705,1695726262968,-0.16796875,0.11621094,0.94433594,0.375,0.15625,0.03125,-45.4375,-14.6875,-89.4375
706,1695726263007,-0.16503906,0.11230469,0.94433594,0.125,0.15625,-0.03125,0.0,0.0,0.0
707,1695726263048,-0.16992188,0.11816406,0.9345703,0.375,0.21875,-0.03125,0.0,0.0,0.0
708,1695726263090,-0.17871094,0.12011719,0.9404297,0.375,0.21875,0.03125,0.0,0.0,0.0
709,1695726263126,-0.17773438,0.11425781,0.93652344,0.4375,0.09375,-0.03125,0.0,0.0,0.0
710,1695726263168,-0.16796875,0.11621094,0.9404297,0.3125,0.34375,-0.03125,0.0,0.0,0.0
711,1695726263207,-0.17382812,0.12207031,0.93359375,0.25,0.03125,-0.03125,0.0,0.0,0.0
712,1695726263250,-0.16015625,0.11425781,0.9326172,0.3125,0.15625,0.03125,0.0,0.0,0.0
713,1695726263288,-0.17382812,0.115234375,0.93066406,0.5625,-0.03125,0.03125,0.0,0.0,0.0
714,1695726263330,-0.1640625,0.11230469,0.9296875,0.5625,0.09375,-0.03125,0.0,0.0,0.0
715,1695726263374,-0.15917969,0.12109375,0.9482422,0.3125,0.21875,-0.09375,0.0,0.0,0.0
716,1695726263407,-0.17871094,0.119140625,0.94628906,0.0625,0.09375,0.03125,0.0,0.0,0.0
717,1695726263449,-0.15722656,0.119140625,0.9404297,0.1875,0.15625,0.03125,0.0,0.0,0.0
718,1695726263489,-0.171875,0.11621094,0.94433594,-0.0625,0.09375,0.09375,-45.0,-15.875,-88.5625
719,1695726263529,-0.17578125,0.11425781,0.93847656,0.3125,0.34375,0.03125,0.0,0.0,0.0
720,1695726263568,-0.16894531,0.12011719,0.953125,0.09375,-0.28125,-0.03125,0.0,0.0,0.0
721,1695726263607,-0.16894531,0.11035156,0.9404297,-0.40625,-0.09375,-0.03125,0.0,0.0,0.0
722,1695726263647,-0.16894531,0.12207031,0.9345703,-0.5,-0.03125,-0.09375,0.0,0.0,0.0
723,1695726263707,-0.16503906,0.119140625,0.9326172,-0.15625,-0.09375,-0.03125,0.0,0.0,0.0
724,1695726263727,-0.171875,0.111328125,0.93847656,0.03125,-0.03125,-0.15625,0.0,0.0,0.0
725,1695726263768,-0.16601562,0.12402344,0.921875,-0.6875,-0.15625,0.09375,0.0,0.0,0.0
726,1695726263827,-0.17285156,0.109375,0.94433594,-0.4375,0.21875,0.21875,0.0,0.0,0.0
727,1695726263847,-0.16503906,0.12011719,0.9433594,0.09375,-0.03125,-0.03125,0.0,0.0,0.0
728,1695726263887,-0.16503906,0.11328125,0.9326172,-0.21875,0.09375,-0.03125,0.0,0.0,0.0
729,1695726263928,-0.17089844,0.11816406,0.94433594,-0.4375,0.03125,-0.09375,0.0,0.0,0.0
730,1695726263968,-0.16308594,0.109375,0.9394531,-0.40625,0.15625,0.15625,-45.625,-16.9375,-87.8125
731,1695726264008,-0.17285156,0.12207031,0.9355469,0.03125,0.15625,-0.21875,0.0,0.0,0.0
732,1695726264048,-0.17480469,0.111328125,0.93847656,-0.28125,-0.03125,0.09375,0.0,0.0,0.0
733,1695726264088,-0.17578125,0.12011719,0.92871094,-0.5,-0.03125,-0.09375,0.0,0.0,0.0
734,1695726264131,-0.15917969,0.11621094,0.9404297,-0.34375,0.03125,-0.03125,0.0,0.0,0.0
735,1695726264167,-0.17578125,0.115234375,0.92871094,-0.40625,-0.03125,0.09375,0.0,0.0,0.0
736,1695726264207,-0.16992188,0.11425781,0.94921875,-0.8125,-0.09375,0.15625,0.0,0.0,0.0
737,1695726264248,-0.17382812,0.11035156,0.93652344,-0.5,0.03125,0.03125,0.0,0.0,0.0
738,1695726264288,-0.17773438,0.119140625,0.94140625,-0.40625,-0.09375,-0.03125,0.0,0.0,0.0
739,1695726264329,-0.16503906,0.11328125,0.9375,-0.6875,-0.03125,-0.03125,0.0,0.0,0.0
740,1695726264369,-0.17578125,0.111328125,0.9238281,-0.625,-0.09375,0.03125,0.0,0.0,0.0
741,1695726264407,-0.16308594,0.11230469,0.9375,-0.625,0.09375,-0.15625,0.0,0.0,0.0
742,1695726264470,-0.171875,0.107421875,0.9404297,-0.5625,-0.03125,-0.09375,0.0,0.0,0.0
743,1695726264489,-0.16601562,0.11035156,0.9404297,-0.34375,0.21875,-0.09375,-45.0,-16.625,-88.5625
744,1695726264528,-0.16015625,0.11425781,0.94140625,-0.03125,-0.34375,0.03125,0.0,0.0,0.0
745,1695726264568,-0.17089844,0.10253906,0.9423828,-0.6875,-0.15625,-0.03125,0.0,0.0,0.0
746,1695726264608,-0.16894531,0.119140625,0.9433594,-0.6875,-0.09375,-0.15625,0.0,0.0,0.0
747,1695726264649,-0.17480469,0.10449219,0.9238281,-0.6875,0.03125,-0.03125,0.0,0.0,0.0
748,1695726264688,-0.16992188,0.109375,0.94628906,-0.21875,0.15625,-0.03125,0.0,0.0,0.0
749,1695726264728,-0.16894531,0.10546875,0.9375,-0.40625,-0.09375,-0.03125,0.0,0.0,0.0
750,1695726264767,-0.16894531,0.11035156,0.9345703,-0.5,0.15625,-0.03125,0.0,0.0,0.0
751,1695726264808,-0.16015625,0.11035156,0.9511719,0.03125,-0.15625,-0.03125,0.0,0.0,0.0
752,1695726264850,-0.1640625,0.11816406,0.9423828,-0.21875,-0.15625,0.03125,0.0,0.0,0.0
753,1695726264889,-0.16503906,0.11425781,0.9472656,-0.28125,-0.03125,-0.03125,0.0,0.0,0.0
754,1695726264930,-0.17089844,0.109375,0.9326172,-0.40625,0.03125,-0.03125,0.0,0.0,0.0
755,1695726264968,-0.16503906,0.11425781,0.95214844,-0.28125,0.03125,0.09375,-44.6875,-17.0625,-88.375
756,1695726265007,-0.16894531,0.1171875,0.9345703,-0.15625,0.03125,0.03125,0.0,0.0,0.0
757,1695726265049,-0.16894531,0.11035156,0.9326172,-0.34375,-0.09375,-0.03125,0.0,0.0,0.0
758,1695726265089,-0.16992188,0.109375,0.9394531,-0.28125,-0.09375,-0.03125,0.0,0.0,0.0
759,1695726265132,-0.16503906,0.11035156,0.9453125,-0.09375,-0.03125,-0.09375,0.0,0.0,0.0
