# Sensor type: Thingy
# Activity type: Standing
# Activity subtype: Normal
# Subject id: s1862623
# Notes: test1
timestamp,accel_x,accel_y,accel_z,gyro_x,gyro_y,gyro_z,mag_x,mag_y,mag_z
1695726909349,-0.99609375,-0.0068359375,-0.18066406,0.46875,1.0,0.15625,0.0,0.0,0.0
1695726909387,-1.0078125,0.009765625,-0.1640625,1.375,2.53125,0.9375,0.0,0.0,0.0
1695726909426,-1.0234375,-0.018554688,-0.140625,3.03125,2.9375,0.875,0.0,0.0,0.0
1695726909469,-1.0146484,-0.005859375,-0.1796875,-1.625,-0.71875,1.0625,-86.125,-30.5625,-176.75
1695726909506,-1.0117188,0.015625,-0.17089844,-0.15625,-0.84375,1.0,0.0,0.0,0.0
1695726909547,-1.0107422,-0.01953125,-0.16113281,0.90625,-1.25,1.25,0.0,0.0,0.0
1695726909589,-1.0068359,9.765625E-4,-0.19433594,-2.59375,0.25,-0.8125,0.0,0.0,0.0
1695726909627,-0.9951172,0.001953125,-0.16894531,0.90625,-1.375,1.375,0.0,0.0,0.0
1695726909687,-1.0136719,-0.013671875,-0.17675781,-2.71875,0.9375,0.21875,0.0,0.0,0.0
1695726909707,-1.0048828,9.765625E-4,-0.15820312,0.09375,1.0,-0.28125,0.0,0.0,0.0
1695726909747,-1.0097656,0.0087890625,-0.18359375,-2.34375,0.4375,0.15625,0.0,0.0,0.0
1695726909788,-1.0107422,0.0,-0.171875,-0.625,-0.59375,0.53125,0.0,0.0,0.0
1695726909826,-1.0087891,-0.0029296875,-0.16699219,0.34375,0.03125,-0.21875,0.0,0.0,0.0
1695726909868,-1.0019531,0.005859375,-0.18261719,-1.5625,0.4375,-0.5625,0.0,0.0,0.0
1695726909907,-1.0117188,-0.017578125,-0.1640625,0.46875,-0.34375,0.59375,0.0,0.0,0.0
1695726909947,-1.0087891,0.0068359375,-0.17675781,-1.375,0.6875,-0.8125,-86.125,-28.0,-175.25
1695726909987,-1.0019531,-0.00390625,-0.17578125,-0.375,-0.09375,0.09375,0.0,0.0,0.0
1695726910027,-1.0019531,0.001953125,-0.16503906,-0.34375,-0.15625,-0.09375,0.0,0.0,0.0
1695726910067,-1.0087891,-0.0048828125,-0.15917969,-0.75,-0.53125,0.03125,0.0,0.0,0.0
1695726910111,-1.0097656,0.001953125,-0.16308594,-0.15625,-0.15625,0.15625,0.0,0.0,0.0
1695726910149,-0.9941406,-0.0048828125,-0.17871094,-0.09375,-0.53125,0.40625,0.0,0.0,0.0
1695726910188,-1.0048828,-0.0126953125,-0.18164062,-0.8125,0.1875,-0.5625,0.0,0.0,0.0
1695726910229,-1.0087891,0.0126953125,-0.17675781,1.1875,-0.15625,0.40625,0.0,0.0,0.0
1695726910268,-1.0048828,-0.0068359375,-0.17089844,-1.25,-0.59375,-0.09375,0.0,0.0,0.0
1695726910308,-1.0048828,-9.765625E-4,-0.18652344,-1.0,-0.53125,-0.40625,0.0,0.0,0.0
1695726910349,-1.0078125,0.00390625,-0.18261719,0.03125,-0.40625,-0.21875,0.0,0.0,0.0
1695726910388,-0.9941406,0.0,-0.17089844,-1.0625,-0.65625,0.21875,0.0,0.0,0.0
1695726910449,-1.0039062,-0.009765625,-0.18261719,-0.6875,-0.34375,0.03125,0.0,0.0,0.0
1695726910467,-1.0107422,-9.765625E-4,-0.17480469,-0.9375,0.25,-0.28125,-85.8125,-27.4375,-175.6875
1695726910508,-1.0048828,-0.0107421875,-0.17382812,1.4375,-1.1875,0.46875,0.0,0.0,0.0
1695726910550,-1.0048828,-0.0087890625,-0.16503906,-0.28125,-0.53125,-0.34375,0.0,0.0,0.0
1695726910588,-1.015625,0.009765625,-0.16894531,0.21875,-0.59375,-0.5,0.0,0.0,0.0
1695726910628,-1.0,-0.0234375,-0.16894531,-0.6875,-1.3125,-0.03125,0.0,0.0,0.0
1695726910668,-1.0166016,-0.005859375,-0.16308594,1.1875,-0.46875,-0.875,0.0,0.0,0.0
1695726910709,-1.0019531,-0.0048828125,-0.16210938,-0.4375,-1.15625,-0.6875,0.0,0.0,0.0
1695726910751,-1.0078125,0.01171875,-0.16894531,1.1875,-0.40625,-0.6875,0.0,0.0,0.0
1695726910788,-1.0146484,-0.01953125,-0.15917969,0.09375,-0.40625,0.03125,0.0,0.0,0.0
1695726910828,-1.0058594,0.0078125,-0.17382812,-1.0,0.03125,-1.125,0.0,0.0,0.0
1695726910867,-1.0019531,-0.0048828125,-0.15527344,-0.5625,-1.4375,0.09375,0.0,0.0,0.0
1695726910908,-1.0039062,-0.0048828125,-0.15722656,-0.4375,-1.4375,-0.5625,0.0,0.0,0.0
1695726910949,-1.0146484,-9.765625E-4,-0.15917969,-2.53125,-0.84375,-1.4375,-84.4375,-29.6875,-174.5
1695726910989,-1.0107422,0.0029296875,-0.15332031,-0.21875,-2.46875,-0.21875,0.0,0.0,0.0
1695726911028,-1.0019531,0.0048828125,-0.1640625,0.40625,-1.75,-0.03125,0.0,0.0,0.0
1695726911068,-0.9941406,-0.0126953125,-0.16308594,-0.5,-0.59375,-1.0,0.0,0.0,0.0
1695726911108,-0.99902344,0.0068359375,-0.16503906,-2.9375,-1.75,-0.8125,0.0,0.0,0.0
1695726911149,-1.0195312,-0.0029296875,-0.15527344,-1.1875,-0.84375,0.03125,0.0,0.0,0.0
1695726911208,-1.0166016,-0.013671875,-0.14746094,-1.25,-1.09375,-0.46875,0.0,0.0,0.0
1695726911228,-1.0029297,-0.0068359375,-0.15234375,-0.75,-0.78125,-0.6875,0.0,0.0,0.0
1695726911268,-1.0048828,-0.013671875,-0.14648438,0.96875,-0.65625,0.40625,0.0,0.0,0.0
1695726911308,-0.99902344,-0.0126953125,-0.1640625,-2.09375,-1.3125,-0.625,0.0,0.0,0.0
1695726911365,-1.0029297,0.0048828125,-0.14648438,1.0,-0.09375,-0.21875,0.0,0.0,0.0
1695726911388,-1.0058594,-0.01171875,-0.15429688,0.84375,-0.15625,0.28125,0.0,0.0,0.0
1695726911432,-1.0058594,-0.0029296875,-0.15136719,-0.9375,-0.28125,-0.5625,0.0,0.0,0.0
1695726911469,-1.015625,0.009765625,-0.14160156,0.90625,0.3125,-0.15625,-87.625,-27.6875,-175.25
1695726911508,-1.0097656,-0.016601562,-0.15039062,-0.875,-1.4375,0.15625,0.0,0.0,0.0
1695726911548,-1.0146484,-0.0126953125,-0.1640625,-1.375,-0.84375,-0.40625,0.0,0.0,0.0
1695726911591,-1.0048828,0.0,-0.14648438,0.65625,-0.90625,0.21875,0.0,0.0,0.0
1695726911627,-0.9941406,-0.0068359375,-0.16601562,0.65625,-0.03125,0.15625,0.0,0.0,0.0
1695726911676,-1.0058594,0.00390625,-0.171875,0.65625,0.4375,-0.09375,0.0,0.0,0.0
1695726911708,-1.0087891,-9.765625E-4,-0.16503906,0.03125,-0.15625,0.15625,0.0,0.0,0.0
1695726911748,-1.0175781,-9.765625E-4,-0.16894531,-1.0625,0.5625,-0.34375,0.0,0.0,0.0
1695726911792,-1.0166016,-0.0068359375,-0.14746094,-0.75,-1.3125,0.59375,0.0,0.0,0.0
1695726911827,-1.0068359,-0.0048828125,-0.16894531,-1.625,-1.03125,-0.09375,0.0,0.0,0.0
1695726911868,-1.0048828,-0.0107421875,-0.16210938,0.59375,-0.40625,0.21875,0.0,0.0,0.0
1695726911909,-1.0078125,-0.0068359375,-0.140625,-1.625,-1.03125,0.09375,0.0,0.0,0.0
1695726911969,-1.0087891,0.0029296875,-0.14648438,-0.75,-0.78125,0.28125,-85.0625,-27.6875,-174.9375
1695726911987,-1.0058594,-0.015625,-0.14746094,-0.03125,-0.53125,0.28125,0.0,0.0,0.0
1695726912028,-1.0039062,-0.0048828125,-0.16015625,-1.65625,-0.40625,-0.15625,0.0,0.0,0.0
1695726912069,-1.0107422,0.0029296875,-0.14550781,0.40625,0.4375,0.40625,0.0,0.0,0.0
1695726912109,-0.99902344,-0.0087890625,-0.15722656,-1.625,-0.34375,0.65625,0.0,0.0,0.0
1695726912148,-1.0097656,-0.0068359375,-0.14257812,-0.09375,1.0625,-0.09375,0.0,0.0,0.0
1695726912192,-1.0048828,0.005859375,-0.13476562,-0.625,0.25,-0.09375,0.0,0.0,0.0
1695726912229,-1.0117188,-0.0087890625,-0.15722656,-3.375,-0.34375,0.21875,0.0,0.0,0.0
1695726912270,-1.0107422,-0.021484375,-0.13378906,0.84375,-0.46875,0.46875,0.0,0.0,0.0
1695726912307,-1.0117188,-0.013671875,-0.14160156,-0.9375,-0.34375,-0.5625,0.0,0.0,0.0
1695726912349,-1.0058594,0.0068359375,-0.16015625,0.65625,0.03125,-0.09375,0.0,0.0,0.0
1695726912387,-1.0126953,0.009765625,-0.13964844,-0.6875,0.1875,0.15625,0.0,0.0,0.0
1695726912428,-1.0166016,0.009765625,-0.15429688,-2.15625,-1.375,0.40625,0.0,0.0,0.0
1695726912471,-1.0048828,-0.009765625,-0.15625,-2.46875,-1.25,0.15625,-86.125,-27.6875,-175.6875
1695726912508,-0.9970703,9.765625E-4,-0.14941406,-1.90625,-0.21875,-0.03125,0.0,0.0,0.0
1695726912550,-1.0136719,0.0068359375,-0.15039062,-1.90625,0.09375,-0.03125,0.0,0.0,0.0
1695726912590,-1.0166016,-0.0048828125,-0.15234375,-1.5,-0.59375,0.53125,0.0,0.0,0.0
1695726912628,-1.0087891,0.0029296875,-0.13476562,-1.3125,0.15625,0.09375,0.0,0.0,0.0
1695726912669,-1.0166016,-0.015625,-0.140625,-1.96875,-1.625,0.59375,0.0,0.0,0.0
1695726912729,-1.0048828,-0.0068359375,-0.15429688,-0.34375,-0.53125,-0.15625,0.0,0.0,0.0
1695726912748,-0.99902344,0.0087890625,-0.14257812,1.1875,-0.09375,-0.15625,0.0,0.0,0.0
1695726912788,-0.9970703,-0.0087890625,-0.15136719,0.15625,0.09375,-0.09375,0.0,0.0,0.0
1695726912828,-1.0126953,-0.00390625,-0.15234375,0.15625,-0.34375,-0.21875,0.0,0.0,0.0
1695726912868,-1.0126953,0.001953125,-0.15527344,2.0,-0.09375,0.03125,0.0,0.0,0.0
1695726912908,-1.0029297,-0.005859375,-0.13964844,0.71875,-0.21875,-0.09375,0.0,0.0,0.0
1695726912948,-1.0058594,0.0,-0.14941406,2.25,0.09375,0.09375,-85.9375,-29.375,-175.5625
1695726912988,-1.0087891,0.0126953125,-0.13671875,-0.75,0.75,-0.40625,0.0,0.0,0.0
1695726913027,-1.0087891,9.765625E-4,-0.14355469,-1.4375,-0.34375,0.09375,0.0,0.0,0.0
1695726913073,-1.015625,0.005859375,-0.13671875,0.09375,0.6875,0.28125,0.0,0.0,0.0
1695726913109,-1.0175781,-0.0087890625,-0.14257812,-0.75,-0.65625,0.21875,0.0,0.0,0.0
1695726913147,-1.0087891,0.0029296875,-0.14941406,-1.0,-0.34375,-0.6875,0.0,0.0,0.0
1695726913189,-1.0,0.009765625,-0.14355469,0.03125,-0.96875,-0.03125,0.0,0.0,0.0
1695726913229,-1.0117188,-0.0068359375,-0.14648438,-1.65625,-0.90625,-0.15625,0.0,0.0,0.0
1695726913269,-1.0068359,-0.00390625,-0.13378906,1.125,-0.15625,-0.21875,0.0,0.0,0.0
1695726913309,-1.0087891,0.0078125,-0.13476562,0.78125,0.5625,-0.34375,0.0,0.0,0.0
1695726913349,-1.0009766,9.765625E-4,-0.15136719,-2.9375,-0.71875,-0.15625,0.0,0.0,0.0
1695726913389,-1.0097656,-0.018554688,-0.13671875,0.65625,-0.28125,-0.03125,0.0,0.0,0.0
1695726913429,-1.0126953,0.00390625,-0.14160156,2.0,0.15625,0.28125,0.0,0.0,0.0
1695726913490,-1.0107422,-0.021484375,-0.14453125,2.59375,-0.03125,-0.09375,-86.875,-29.0625,-173.3125
1695726913508,-1.0117188,0.005859375,-0.14648438,1.5625,0.4375,-0.34375,0.0,0.0,0.0
1695726913550,-1.0136719,-0.005859375,-0.15527344,0.21875,-0.34375,0.15625,0.0,0.0,0.0
1695726913588,-1.0166016,-0.0029296875,-0.14257812,1.0625,-0.78125,-0.03125,0.0,0.0,0.0
1695726913628,-1.0019531,-0.0107421875,-0.15625,1.3125,-0.46875,0.15625,0.0,0.0,0.0
1695726913669,-1.0029297,-0.0048828125,-0.14453125,-0.875,-0.09375,-0.40625,0.0,0.0,0.0
1695726913708,-1.0136719,0.009765625,-0.13964844,0.84375,0.15625,-0.28125,0.0,0.0,0.0
1695726913748,-1.0087891,-0.0078125,-0.14257812,-0.03125,-0.03125,0.46875,0.0,0.0,0.0
1695726913789,-0.99902344,-0.0107421875,-0.15332031,-0.03125,0.375,-0.40625,0.0,0.0,0.0
1695726913829,-1.0029297,0.013671875,-0.13476562,0.34375,1.0,-0.46875,0.0,0.0,0.0
1695726913868,-1.0117188,-9.765625E-4,-0.14257812,-2.28125,-0.46875,0.46875,0.0,0.0,0.0
1695726913908,-1.0009766,0.001953125,-0.14355469,-1.65625,-0.53125,0.15625,0.0,0.0,0.0
1695726913951,-1.0107422,-0.0048828125,-0.12597656,-0.875,0.25,0.09375,-85.1875,-27.875,-174.5
1695726913989,-1.0058594,-0.0029296875,-0.140625,-1.90625,0.4375,-0.15625,0.0,0.0,0.0
1695726914027,-1.0097656,-0.0087890625,-0.15039062,-0.375,0.15625,-0.09375,0.0,0.0,0.0
1695726914089,-1.0117188,0.0068359375,-0.12792969,1.4375,0.1875,0.28125,0.0,0.0,0.0
1695726914108,-1.0068359,-0.016601562,-0.15429688,-0.875,0.09375,0.15625,0.0,0.0,0.0
1695726914152,-1.0087891,0.00390625,-0.14746094,-0.5,0.6875,-0.46875,0.0,0.0,0.0
1695726914189,-1.0019531,-0.0068359375,-0.12792969,1.8125,-0.09375,0.9375,0.0,0.0,0.0
1695726914248,-1.0107422,-0.016601562,-0.1484375,0.84375,0.4375,-0.03125,0.0,0.0,0.0
1695726914269,-1.0126953,0.0068359375,-0.14453125,0.78125,0.8125,-0.40625,0.0,0.0,0.0
1695726914309,-1.0087891,-9.765625E-4,-0.15039062,1.75,0.8125,0.09375,0.0,0.0,0.0
1695726914349,-1.0068359,-0.0087890625,-0.16699219,2.1875,0.8125,0.21875,0.0,0.0,0.0
1695726914389,-1.0078125,0.001953125,-0.1484375,-0.28125,1.125,-0.75,0.0,0.0,0.0
1695726914428,-1.0078125,0.013671875,-0.15039062,-0.375,0.4375,-0.5,0.0,0.0,0.0
1695726914473,-1.0097656,-0.00390625,-0.14746094,1.0625,-0.46875,0.40625,-85.5,-28.625,-173.75
1695726914509,-1.0,-0.0029296875,-0.15917969,-0.9375,-0.78125,-0.28125,0.0,0.0,0.0
1695726914548,-1.0107422,0.005859375,-0.14257812,-0.09375,0.5,0.03125,0.0,0.0,0.0
1695726914593,-1.0039062,-0.0048828125,-0.140625,-0.34375,0.15625,-0.09375,0.0,0.0,0.0
1695726914632,-1.0029297,-0.0107421875,-0.15332031,0.84375,0.5625,0.03125,0.0,0.0,0.0
1695726914671,-1.0097656,0.001953125,-0.13769531,-0.75,0.15625,-0.28125,0.0,0.0,0.0
1695726914708,-1.0087891,0.0048828125,-0.14160156,0.40625,-0.03125,0.15625,0.0,0.0,0.0
1695726914754,-1.0166016,-0.017578125,-0.15136719,0.34375,0.03125,-0.15625,0.0,0.0,0.0
1695726914789,-1.0107422,-0.0068359375,-0.15136719,0.65625,-0.03125,-0.21875,0.0,0.0,0.0
1695726914828,-1.0136719,-0.0107421875,-0.1484375,1.0625,0.4375,-0.34375,0.0,0.0,0.0
1695726914870,-1.0146484,-0.00390625,-0.15429688,-0.9375,-0.53125,-0.09375,0.0,0.0,0.0
1695726914911,-1.0078125,-0.018554688,-0.14746094,0.96875,-0.53125,-0.03125,0.0,0.0,0.0
1695726914951,-1.0097656,-9.765625E-4,-0.13867188,3.46875,0.15625,0.34375,-85.1875,-28.9375,-174.5
1695726915007,-1.0126953,-0.001953125,-0.15625,1.1875,0.4375,-0.5625,0.0,0.0,0.0
1695726915027,-1.0214844,0.0107421875,-0.15039062,1.0625,0.03125,-0.21875,0.0,0.0,0.0
1695726915072,-1.0097656,-0.0029296875,-0.14257812,1.25,-0.28125,0.28125,0.0,0.0,0.0
1695726915108,-1.0117188,0.001953125,-0.16601562,0.28125,-0.59375,-0.21875,0.0,0.0,0.0
1695726915153,-1.0107422,-0.0029296875,-0.14453125,0.28125,-0.28125,-0.875,0.0,0.0,0.0
1695726915189,-1.0048828,0.0048828125,-0.13183594,0.34375,-0.65625,0.21875,0.0,0.0,0.0
1695726915227,-1.0087891,-0.005859375,-0.15722656,-0.75,-0.53125,-0.15625,0.0,0.0,0.0
1695726915268,-1.015625,0.00390625,-0.140625,0.03125,-0.28125,-0.34375,0.0,0.0,0.0
1695726915308,-1.0029297,-0.0087890625,-0.16113281,-0.75,-0.40625,-0.09375,0.0,0.0,0.0
1695726915348,-1.0048828,-0.00390625,-0.15136719,0.03125,-0.71875,-0.03125,0.0,0.0,0.0
1695726915410,-1.0068359,0.0048828125,-0.14355469,-0.28125,-0.21875,-0.34375,0.0,0.0,0.0
1695726915428,-1.0009766,-0.0048828125,-0.14257812,-0.15625,-0.21875,0.15625,0.0,0.0,0.0
1695726915469,-1.0107422,-0.0078125,-0.140625,-1.84375,-0.46875,-0.34375,-85.5,-28.9375,-174.0625
1695726915508,-1.0068359,-0.0078125,-0.15625,1.4375,0.15625,0.21875,0.0,0.0,0.0
1695726915548,-1.0078125,-0.0068359375,-0.13476562,-0.8125,0.3125,-0.28125,0.0,0.0,0.0
1695726915589,-1.0175781,-0.0087890625,-0.12890625,-0.5625,-1.5625,0.28125,0.0,0.0,0.0
1695726915628,-0.9980469,-0.00390625,-0.15625,0.28125,0.09375,-0.15625,0.0,0.0,0.0
1695726915669,-1.0068359,-0.021484375,-0.13867188,1.1875,-0.59375,0.46875,0.0,0.0,0.0
1695726915709,-1.0097656,-0.0078125,-0.140625,0.21875,0.625,-0.5,0.0,0.0,0.0
1695726915769,-1.0126953,0.001953125,-0.12597656,0.28125,0.25,0.03125,0.0,0.0,0.0
1695726915788,-1.0039062,-0.0107421875,-0.14257812,0.71875,0.09375,0.15625,0.0,0.0,0.0
1695726915829,-1.0107422,-0.0107421875,-0.13574219,-1.25,-0.59375,0.09375,0.0,0.0,0.0
1695726915869,-1.0087891,0.00390625,-0.13769531,0.53125,-0.21875,0.03125,0.0,0.0,0.0
1695726915909,-0.9951172,-0.00390625,-0.125,0.53125,-0.40625,0.28125,0.0,0.0,0.0
1695726915949,-1.0029297,0.005859375,-0.13378906,-0.625,-0.15625,-0.46875,-85.1875,-27.5625,-173.75
1695726915989,-1.0097656,0.0068359375,-0.14160156,-0.34375,0.09375,0.15625,0.0,0.0,0.0
1695726916028,-1.0175781,-0.0029296875,-0.14453125,-0.5,0.15625,-0.15625,0.0,0.0,0.0
1695726916069,-1.0078125,-0.013671875,-0.13183594,-0.15625,-0.09375,-0.28125,0.0,0.0,0.0
1695726916109,-1.0009766,0.0029296875,-0.14941406,0.21875,0.375,-0.46875,0.0,0.0,0.0
1695726916149,-1.0107422,0.0,-0.15917969,-1.3125,-0.09375,0.03125,0.0,0.0,0.0
1695726916187,-1.0048828,-0.025390625,-0.15917969,0.21875,-0.34375,0.46875,0.0,0.0,0.0
1695726916227,-1.0107422,-0.0048828125,-0.13378906,0.03125,0.375,-0.40625,0.0,0.0,0.0
1695726916271,-1.0029297,0.0078125,-0.14941406,1.3125,0.375,-0.09375,0.0,0.0,0.0
1695726916308,-1.0019531,-0.0068359375,-0.13964844,-1.65625,-0.03125,0.03125,0.0,0.0,0.0
1695726916349,-1.0029297,-0.01171875,-0.14941406,-0.4375,-0.28125,-0.40625,0.0,0.0,0.0
1695726916389,-1.0048828,0.0029296875,-0.14453125,0.34375,0.3125,-0.03125,0.0,0.0,0.0
1695726916429,-0.99902344,-0.0029296875,-0.13085938,1.3125,-0.03125,0.28125,0.0,0.0,0.0
1695726916469,-1.0087891,-0.0029296875,-0.15332031,-0.6875,0.4375,-0.46875,-85.0625,-28.4375,-174.625
1695726916529,-1.0117188,-0.0029296875,-0.14160156,0.46875,0.15625,0.21875,0.0,0.0,0.0
1695726916551,-1.0048828,-0.017578125,-0.14550781,-0.15625,0.1875,0.15625,0.0,0.0,0.0
1695726916588,-1.0048828,-0.009765625,-0.16015625,0.09375,-0.46875,-0.21875,0.0,0.0,0.0
1695726916628,-1.0097656,0.0087890625,-0.14941406,0.96875,0.1875,-0.09375,0.0,0.0,0.0
1695726916672,-1.0175781,-0.017578125,-0.1484375,-0.03125,0.375,0.21875,0.0,0.0,0.0
1695726916709,-1.0126953,-0.0068359375,-0.16308594,0.40625,0.9375,0.03125,0.0,0.0,0.0
1695726916751,-1.0107422,-0.0068359375,-0.13769531,1.0625,1.3125,-0.28125,0.0,0.0,0.0
1695726916789,-1.0107422,0.005859375,-0.14648438,1.25,0.75,-0.21875,0.0,0.0,0.0
1695726916827,-1.0029297,-0.0126953125,-0.15429688,0.34375,-0.03125,0.21875,0.0,0.0,0.0
1695726916869,-1.0029297,9.765625E-4,-0.15917969,0.71875,-0.03125,-0.03125,0.0,0.0,0.0
1695726916908,-1.0029297,-0.0126953125,-0.15527344,1.25,0.375,-0.15625,0.0,0.0,0.0
1695726916954,-1.0146484,0.0107421875,-0.15527344,1.5,1.25,-0.09375,-86.125,-27.6875,-174.9375
1695726916988,-1.0107422,-0.001953125,-0.15429688,0.09375,0.1875,0.34375,0.0,0.0,0.0
1695726917030,-1.0205078,-0.01171875,-0.15136719,0.71875,0.5,-0.40625,0.0,0.0,0.0
1695726917068,-1.0048828,-0.0029296875,-0.16210938,0.34375,0.3125,-0.34375,0.0,0.0,0.0
1695726917108,-1.0,-0.005859375,-0.1484375,0.53125,0.25,0.03125,0.0,0.0,0.0
1695726917154,-1.0019531,0.001953125,-0.16601562,0.40625,-0.03125,-0.34375,0.0,0.0,0.0
1695726917190,-1.0087891,-0.0029296875,-0.15917969,-0.5,0.15625,-0.28125,0.0,0.0,0.0
1695726917234,-1.0117188,-0.001953125,-0.15039062,-0.03125,-0.03125,0.03125,0.0,0.0,0.0
1695726917288,-1.0097656,-0.01171875,-0.17382812,-0.5,-0.03125,-0.21875,0.0,0.0,0.0
1695726917307,-1.0126953,-0.0107421875,-0.15527344,0.40625,0.03125,-0.21875,0.0,0.0,0.0
1695726917348,-1.0107422,0.0078125,-0.16796875,-1.125,-0.34375,-0.28125,0.0,0.0,0.0
1695726917388,-1.0039062,0.005859375,-0.14453125,0.46875,0.25,-0.28125,0.0,0.0,0.0
1695726917430,-0.9951172,-0.015625,-0.15234375,-1.25,-0.21875,-0.03125,0.0,0.0,0.0
1695726917471,-1.0039062,-0.0048828125,-0.15820312,-0.09375,0.25,-0.46875,-85.5,-29.6875,-174.5
1695726917507,-1.0039062,-0.0068359375,-0.14941406,0.53125,0.1875,-0.40625,0.0,0.0,0.0
1695726917548,-1.0078125,-0.005859375,-0.17089844,0.03125,0.5,-0.09375,0.0,0.0,0.0
1695726917590,-1.0087891,-0.020507812,-0.16894531,1.0625,1.125,0.09375,0.0,0.0,0.0
1695726917630,-1.0175781,-0.005859375,-0.14160156,-0.21875,1.1875,-0.03125,0.0,0.0,0.0
1695726917668,-1.0166016,0.0029296875,-0.15234375,0.90625,0.25,-0.03125,0.0,0.0,0.0
1695726917711,-1.0097656,-0.0078125,-0.140625,-0.6875,-0.40625,-0.21875,0.0,0.0,0.0
1695726917753,-1.0058594,-0.013671875,-0.14257812,-0.03125,-1.03125,-0.28125,0.0,0.0,0.0
1695726917808,-1.0175781,-0.009765625,-0.15234375,-0.4375,-0.84375,-0.15625,0.0,0.0,0.0
1695726917833,-1.0068359,-0.029296875,-0.13769531,2.0,-0.21875,0.34375,0.0,0.0,0.0
1695726917868,-1.0117188,-9.765625E-4,-0.15429688,-1.3125,-0.40625,-0.75,0.0,0.0,0.0
1695726917908,-1.0107422,0.030273438,-0.14355469,0.03125,0.03125,0.09375,0.0,0.0,0.0
1695726917948,-1.0048828,-0.0146484375,-0.16210938,-1.3125,-0.84375,0.53125,-85.1875,-28.9375,-174.5
1695726917989,-1.0068359,-0.013671875,-0.15332031,-1.1875,0.15625,-0.28125,0.0,0.0,0.0
1695726918051,-1.0117188,-0.005859375,-0.13378906,0.09375,-0.46875,0.40625,0.0,0.0,0.0
1695726918069,-1.0097656,-0.0087890625,-0.15136719,-0.5,-0.15625,0.15625,0.0,0.0,0.0
1695726918111,-1.0029297,-0.0068359375,-0.14550781,0.34375,-0.71875,-0.03125,0.0,0.0,0.0
1695726918149,-1.0107422,-0.01171875,-0.14941406,-0.34375,-0.21875,-0.03125,0.0,0.0,0.0
1695726918190,-1.0019531,-0.0087890625,-0.16113281,-0.03125,-0.21875,0.09375,0.0,0.0,0.0
1695726918229,-1.0097656,-0.0068359375,-0.14550781,-0.09375,0.4375,0.03125,0.0,0.0,0.0
1695726918268,-1.0097656,-0.0078125,-0.15527344,-0.4375,-0.09375,0.03125,0.0,0.0,0.0
1695726918309,-1.0185547,-0.0078125,-0.16015625,0.46875,-0.03125,-0.03125,0.0,0.0,0.0
1695726918349,-1.0039062,-0.0029296875,-0.15332031,0.03125,-0.15625,0.15625,0.0,0.0,0.0
1695726918389,-1.0107422,9.765625E-4,-0.14160156,-0.4375,0.15625,-0.15625,0.0,0.0,0.0
1695726918429,-1.0029297,-9.765625E-4,-0.15039062,1.3125,0.4375,0.40625,0.0,0.0,0.0
1695726918469,-1.0087891,-0.0107421875,-0.15039062,-0.75,0.3125,-0.21875,-85.9375,-28.9375,-174.8125
1695726918508,-1.0117188,0.005859375,-0.16113281,0.28125,0.03125,-0.09375,0.0,0.0,0.0
1695726918548,-1.0029297,-0.0107421875,-0.15039062,0.71875,0.5,0.28125,0.0,0.0,0.0
1695726918588,-1.0048828,0.001953125,-0.14550781,-0.9375,-0.28125,-0.15625,0.0,0.0,0.0
1695726918630,-1.0224609,-0.0068359375,-0.14453125,0.28125,0.375,-0.28125,0.0,0.0,0.0
1695726918669,-1.0029297,-0.0146484375,-0.14941406,0.46875,-0.21875,0.09375,0.0,0.0,0.0
1695726918708,-1.0136719,0.0048828125,-0.15820312,-0.625,-0.03125,0.03125,0.0,0.0,0.0
1695726918754,-1.0058594,-0.0087890625,-0.15625,0.03125,-0.09375,0.21875,0.0,0.0,0.0
1695726918809,-1.0146484,-0.01171875,-0.15527344,-0.625,-0.09375,-0.03125,0.0,0.0,0.0
1695726918829,-1.0048828,-0.005859375,-0.15429688,-0.34375,-0.15625,-0.09375,0.0,0.0,0.0
1695726918870,-1.0107422,-0.0029296875,-0.15527344,-0.09375,-0.21875,0.09375,0.0,0.0,0.0
1695726918908,-1.0058594,-0.009765625,-0.1484375,-0.21875,-1.03125,0.15625,0.0,0.0,0.0
1695726918948,-1.0107422,0.009765625,-0.16601562,-0.15625,-0.46875,-0.21875,-85.5,-27.125,-175.125
1695726918988,-1.0039062,-0.01171875,-0.1484375,-0.03125,-0.65625,0.46875,0.0,0.0,0.0
1695726919032,-1.0058594,-0.005859375,-0.15820312,-0.875,-0.03125,-0.09375,0.0,0.0,0.0
1695726919067,-1.0097656,0.001953125,-0.15039062,0.03125,0.03125,0.28125,0.0,0.0,0.0
1695726919108,-1.0078125,-0.005859375,-0.13867188,-0.28125,-0.15625,0.21875,0.0,0.0,0.0
1695726919149,-1.0068359,-9.765625E-4,-0.14648438,-1.125,-0.96875,-0.09375,0.0,0.0,0.0
1695726919188,-1.0048828,0.0126953125,-0.15234375,0.28125,-0.03125,-0.09375,0.0,0.0,0.0
1695726919229,-1.0097656,-9.765625E-4,-0.14648438,0.40625,-0.28125,0.59375,0.0,0.0,0.0
1695726919268,-1.0087891,-0.01171875,-0.14746094,-0.5625,-0.15625,0.09375,0.0,0.0,0.0
1695726919309,-1.015625,0.001953125,-0.14746094,1.5625,0.9375,0.03125,0.0,0.0,0.0
1695726919349,-1.0019531,-0.013671875,-0.13964844,0.21875,-0.34375,-0.09375,0.0,0.0,0.0
1695726919388,-1.0048828,0.009765625,-0.16015625,1.0625,0.5,-0.15625,0.0,0.0,0.0
1695726919428,-1.0117188,-0.0087890625,-0.13574219,1.1875,0.6875,0.15625,0.0,0.0,0.0
1695726919468,-1.0126953,-0.01953125,-0.15722656,-0.8125,0.3125,-0.34375,-85.0625,-28.4375,-174.9375
1695726919508,-1.0068359,-0.0068359375,-0.13574219,-0.34375,0.03125,-0.15625,0.0,0.0,0.0
1695726919570,-1.0136719,9.765625E-4,-0.14355469,0.15625,-0.03125,0.15625,0.0,0.0,0.0
1695726919590,-1.0048828,-0.0146484375,-0.16113281,-1.90625,-1.4375,0.03125,0.0,0.0,0.0
1695726919629,-1.0048828,0.0048828125,-0.16015625,0.65625,0.4375,-0.34375,0.0,0.0,0.0
1695726919675,-1.0019531,-0.0087890625,-0.14257812,-1.90625,-0.90625,0.09375,0.0,0.0,0.0
1695726919709,-1.0107422,0.0048828125,-0.15332031,0.03125,0.375,-0.03125,0.0,0.0,0.0
1695726919748,-1.0058594,-0.020507812,-0.14550781,-1.3125,-0.71875,0.21875,0.0,0.0,0.0
1695726919788,-1.0166016,0.00390625,-0.14550781,0.46875,0.15625,-0.34375,0.0,0.0,0.0
1695726919832,-1.0146484,-0.0078125,-0.14941406,0.90625,0.03125,0.15625,0.0,0.0,0.0
1695726919870,-1.0039062,-0.001953125,-0.14160156,-0.34375,-0.40625,0.03125,0.0,0.0,0.0
1695726919908,-1.0136719,-0.0048828125,-0.1484375,-0.28125,-0.03125,0.21875,0.0,0.0,0.0
1695726919949,-1.0039062,-0.017578125,-0.14746094,-0.03125,-0.03125,0.03125,-86.125,-29.0625,-174.1875
1695726919989,-1.0107422,-9.765625E-4,-0.1484375,1.8125,0.15625,-0.09375,0.0,0.0,0.0
1695726920029,-1.0068359,-0.017578125,-0.14648438,-0.03125,-0.53125,-0.21875,0.0,0.0,0.0
1695726920068,-1.0068359,0.0107421875,-0.15136719,0.65625,0.25,-0.28125,0.0,0.0,0.0
1695726920109,-1.0097656,-0.005859375,-0.15917969,-0.75,-0.28125,-0.09375,0.0,0.0,0.0
1695726920154,-1.0058594,0.005859375,-0.15722656,-0.09375,-0.03125,0.03125,0.0,0.0,0.0
1695726920188,-1.0058594,-0.0126953125,-0.13769531,-0.09375,-0.09375,0.03125,0.0,0.0,0.0
1695726920230,-1.0126953,0.00390625,-0.15917969,-0.34375,0.625,-0.46875,0.0,0.0,0.0
1695726920271,-1.015625,-0.0107421875,-0.15234375,-0.03125,-0.34375,0.09375,0.0,0.0,0.0
1695726920329,-1.0146484,-0.0234375,-0.15136719,-0.03125,-0.34375,0.15625,0.0,0.0,0.0
1695726920352,-1.0058594,-9.765625E-4,-0.15136719,-0.03125,0.25,-0.28125,0.0,0.0,0.0
1695726920387,-1.0107422,-0.00390625,-0.14160156,-0.6875,0.03125,-0.15625,0.0,0.0,0.0
1695726920432,-1.0146484,-0.00390625,-0.15625,-0.03125,-0.09375,0.15625,0.0,0.0,0.0
1695726920471,-1.0097656,-9.765625E-4,-0.12207031,-0.4375,0.5,-0.28125,-85.375,-29.5,-174.1875
1695726920507,-1.0117188,-0.0107421875,-0.14257812,-0.5625,0.25,0.15625,0.0,0.0,0.0
1695726920549,-1.0126953,-0.0087890625,-0.15722656,0.96875,1.65625,-0.28125,0.0,0.0,0.0
1695726920589,-1.0087891,-0.005859375,-0.14453125,0.40625,1.125,0.21875,0.0,0.0,0.0
1695726920629,-1.0058594,-0.0107421875,-0.15429688,-1.4375,-0.09375,-0.40625,0.0,0.0,0.0
1695726920668,-1.0126953,0.001953125,-0.15332031,1.0,0.25,0.09375,0.0,0.0,0.0
1695726920708,-1.0068359,-0.0087890625,-0.14257812,-0.6875,0.09375,0.03125,0.0,0.0,0.0
1695726920748,-1.0126953,-0.0107421875,-0.13867188,-0.09375,-0.65625,0.09375,0.0,0.0,0.0
1695726920788,-1.0029297,0.0068359375,-0.1484375,0.34375,0.09375,0.09375,0.0,0.0,0.0
1695726920831,-1.0097656,-0.024414062,-0.140625,-0.28125,-0.21875,-0.15625,0.0,0.0,0.0
1695726920868,-1.0068359,0.005859375,-0.13867188,-0.15625,-0.15625,-0.34375,0.0,0.0,0.0
1695726920909,-1.0097656,-0.013671875,-0.14453125,1.5,-0.15625,0.65625,0.0,0.0,0.0
1695726920949,-1.0068359,-0.005859375,-0.16015625,-0.75,0.15625,-0.40625,-86.875,-29.0625,-174.1875
1695726920988,-1.0029297,0.0,-0.15332031,0.53125,-0.03125,-0.34375,0.0,0.0,0.0
1695726921028,-1.0107422,-0.0029296875,-0.17285156,0.28125,0.375,0.09375,0.0,0.0,0.0
1695726921089,-1.0,-0.009765625,-0.15429688,-1.5625,-0.09375,-0.15625,0.0,0.0,0.0
1695726921108,-1.0,-0.0029296875,-0.14453125,1.5,0.625,0.46875,0.0,0.0,0.0
1695726921149,-1.0107422,-0.0048828125,-0.15820312,-0.34375,0.75,-0.28125,0.0,0.0,0.0
1695726921189,-1.0166016,0.005859375,-0.15136719,0.46875,1.0,-0.03125,0.0,0.0,0.0
1695726921227,-1.0009766,-0.01953125,-0.14355469,0.90625,-0.21875,0.53125,0.0,0.0,0.0
1695726921268,-1.0058594,9.765625E-4,-0.16210938,-0.09375,-0.03125,-0.03125,0.0,0.0,0.0
1695726921308,-1.0029297,-0.001953125,-0.15332031,1.0,1.0625,0.28125,0.0,0.0,0.0
1695726921350,-1.0048828,-0.01171875,-0.1484375,-2.15625,0.09375,0.09375,0.0,0.0,0.0
1695726921387,-1.0117188,0.0107421875,-0.14453125,0.34375,0.75,0.09375,0.0,0.0,0.0
1695726921428,-1.0019531,-0.0087890625,-0.14648438,-0.9375,-0.40625,0.03125,0.0,0.0,0.0
1695726921468,-1.015625,0.0029296875,-0.15234375,0.71875,0.3125,0.03125,-85.9375,-28.9375,-173.75
1695726921508,-1.0,-0.0126953125,-0.14648438,0.65625,0.4375,-0.03125,0.0,0.0,0.0
1695726921549,-1.0126953,0.005859375,-0.16503906,1.125,1.78125,-0.21875,0.0,0.0,0.0
1695726921589,-1.0048828,-0.009765625,-0.16015625,0.78125,1.125,0.34375,0.0,0.0,0.0
1695726921628,-1.0107422,9.765625E-4,-0.17480469,-0.5,0.5625,-0.40625,0.0,0.0,0.0
1695726921668,-1.0117188,0.0068359375,-0.14355469,0.46875,0.1875,0.15625,0.0,0.0,0.0
1695726921709,-1.0009766,-0.0146484375,-0.17773438,-2.28125,-0.53125,-0.34375,0.0,0.0,0.0
1695726921749,-1.0039062,0.0048828125,-0.15332031,1.125,0.15625,0.21875,0.0,0.0,0.0
1695726921789,-1.0009766,-0.0078125,-0.16992188,-1.0,0.09375,-0.28125,0.0,0.0,0.0
1695726921869,-1.0019531,-0.0068359375,-0.14746094,0.03125,0.09375,0.21875,0.0,0.0,0.0
1695726921871,-1.0097656,-0.00390625,-0.14257812,-1.125,-1.6875,-0.09375,0.0,0.0,0.0
1695726921909,-1.0068359,0.0048828125,-0.15722656,-1.125,-1.03125,-0.5,0.0,0.0,0.0
1695726921951,-1.0039062,-0.0107421875,-0.14160156,1.0625,-0.15625,0.40625,-87.3125,-28.625,-174.0625
1695726921989,-0.9980469,-0.0087890625,-0.16601562,-1.625,-0.65625,-0.625,0.0,0.0,0.0
1695726922030,-1.0117188,0.0078125,-0.16113281,1.8125,0.15625,-0.15625,0.0,0.0,0.0
1695726922069,-1.0136719,-0.0126953125,-0.14550781,-0.15625,-0.09375,0.03125,0.0,0.0,0.0
1695726922108,-1.0058594,0.0126953125,-0.16308594,0.84375,0.4375,-0.21875,0.0,0.0,0.0
1695726922150,-1.0195312,-0.0068359375,-0.14453125,0.84375,0.9375,0.15625,0.0,0.0,0.0
1695726922188,-1.0097656,-0.0146484375,-0.14550781,0.09375,-0.03125,-0.21875,0.0,0.0,0.0
1695726922231,-1.0019531,0.001953125,-0.16894531,-0.15625,-0.40625,-0.09375,0.0,0.0,0.0
1695726922269,-1.0009766,-0.017578125,-0.16308594,-0.6875,-0.40625,-0.09375,0.0,0.0,0.0
1695726922309,-1.0097656,0.0087890625,-0.16015625,0.71875,0.15625,-0.21875,0.0,0.0,0.0
1695726922350,-1.0048828,-0.0087890625,-0.16113281,-0.5625,0.6875,0.34375,0.0,0.0,0.0
1695726922388,-1.0087891,-0.0078125,-0.1484375,-1.90625,-0.53125,-0.09375,0.0,0.0,0.0
1695726922429,-1.0136719,-0.0029296875,-0.16894531,-0.03125,0.5,0.09375,0.0,0.0,0.0
1695726922468,-0.99609375,-0.01171875,-0.15820312,-0.9375,-0.21875,0.03125,-85.9375,-27.875,-174.0625
1695726922530,-1.0107422,-0.00390625,-0.15625,1.1875,0.625,-0.03125,0.0,0.0,0.0
1695726922550,-1.0,-0.009765625,-0.16503906,1.0,0.5,0.03125,0.0,0.0,0.0
1695726922607,-1.0058594,-0.005859375,-0.15527344,-0.5,0.6875,-0.34375,0.0,0.0,0.0
1695726922630,-1.0029297,-0.001953125,-0.15234375,-0.09375,0.625,0.09375,0.0,0.0,0.0
1695726922669,-1.0097656,-0.0146484375,-0.14941406,0.34375,0.1875,0.28125,0.0,0.0,0.0
1695726922708,-1.0087891,-0.00390625,-0.16015625,-0.6875,-0.15625,-0.21875,0.0,0.0,0.0
1695726922749,-0.99609375,-0.01171875,-0.16992188,-0.09375,-0.71875,0.34375,0.0,0.0,0.0
1695726922789,-0.9970703,-0.0087890625,-0.16894531,0.96875,1.0625,0.03125,0.0,0.0,0.0
1695726922829,-1.0136719,0.009765625,-0.14746094,0.15625,1.1875,-0.03125,0.0,0.0,0.0
1695726922871,-1.0175781,-0.0107421875,-0.15722656,-0.03125,-0.34375,0.09375,0.0,0.0,0.0
1695726922910,-1.0107422,-0.0068359375,-0.15332031,0.65625,-0.65625,0.15625,0.0,0.0,0.0
1695726922948,-1.0019531,-0.024414062,-0.18261719,2.0,-0.96875,-0.5,-84.875,-28.625,-174.8125
1695726922987,-1.0029297,0.026367188,-0.16894531,1.4375,-0.65625,-0.46875,0.0,0.0,0.0
1695726923030,-0.9980469,0.0126953125,-0.17089844,2.1875,0.3125,0.8125,0.0,0.0,0.0
1695726923088,-1.0087891,-0.0107421875,-0.1640625,-0.8125,-0.21875,0.28125,0.0,0.0,0.0
1695726923109,-1.0048828,0.0048828125,-0.15625,0.15625,-0.03125,-0.15625,0.0,0.0,0.0
1695726923149,-0.99316406,-0.0146484375,-0.15136719,0.21875,0.15625,0.34375,0.0,0.0,0.0
1695726923193,-1.0117188,0.0029296875,-0.15917969,-0.75,-0.96875,-0.34375,0.0,0.0,0.0
1695726923227,-1.0107422,0.0107421875,-0.16503906,-0.4375,-1.5,0.03125,0.0,0.0,0.0
1695726923268,-1.0029297,-0.009765625,-0.1640625,-0.5,-1.25,0.28125,0.0,0.0,0.0
1695726923309,-1.0136719,-0.001953125,-0.15429688,0.15625,-0.90625,0.15625,0.0,0.0,0.0
1695726923368,-1.0087891,-0.00390625,-0.15722656,0.59375,-0.46875,0.03125,0.0,0.0,0.0
1695726923388,-1.0039062,-0.0029296875,-0.14648438,0.40625,0.375,0.46875,0.0,0.0,0.0
1695726923430,-1.0097656,-0.0234375,-0.14257812,-0.34375,-0.34375,-0.28125,0.0,0.0,0.0
1695726923468,-1.0166016,0.0048828125,-0.15039062,1.0,0.15625,-0.5625,-86.125,-28.4375,-174.9375
1695726923514,-1.0097656,-9.765625E-4,-0.14160156,0.78125,-0.40625,0.03125,0.0,0.0,0.0
1695726923547,-1.0009766,0.0029296875,-0.16601562,-0.03125,-0.28125,-0.34375,0.0,0.0,0.0
1695726923587,-1.0087891,0.0048828125,-0.1484375,-0.15625,0.15625,-0.34375,0.0,0.0,0.0
1695726923628,-1.0117188,-9.765625E-4,-0.1640625,-0.75,-0.21875,0.09375,0.0,0.0,0.0
1695726923669,-1.0126953,9.765625E-4,-0.15234375,-1.0,-0.21875,0.03125,0.0,0.0,0.0
1695726923709,-1.0087891,0.015625,-0.15917969,-1.71875,0.75,-0.40625,0.0,0.0,0.0
1695726923749,-0.9970703,-0.0087890625,-0.15917969,-1.1875,0.25,0.53125,0.0,0.0,0.0
1695726923788,-1.0136719,-0.009765625,-0.14746094,-0.4375,0.09375,0.15625,0.0,0.0,0.0
1695726923829,-1.0068359,-0.015625,-0.1640625,0.65625,1.0,-0.03125,0.0,0.0,0.0
1695726923868,-1.0107422,-0.005859375,-0.14648438,1.4375,0.3125,-0.34375,0.0,0.0,0.0
1695726923909,-1.0048828,0.0048828125,-0.16210938,2.0,0.25,-0.5,0.0,0.0,0.0
1695726923949,-0.99902344,-0.0087890625,-0.16601562,1.875,-0.28125,0.28125,-85.375,-28.0,-174.1875
1695726923988,-1.0058594,0.0,-0.16113281,0.40625,0.375,-0.40625,0.0,0.0,0.0
1695726924029,-1.0117188,-0.00390625,-0.1640625,1.25,0.375,-0.09375,0.0,0.0,0.0
1695726924068,-1.0058594,-0.0146484375,-0.16308594,-0.375,-0.28125,-0.40625,0.0,0.0,0.0
1695726924128,-1.0009766,-0.00390625,-0.15722656,0.78125,0.15625,0.15625,0.0,0.0,0.0
1695726924149,-1.0,-0.016601562,-0.16015625,0.40625,-0.78125,-0.03125,0.0,0.0,0.0
1695726924193,-1.0039062,-0.001953125,-0.16015625,1.0,0.1875,-0.03125,0.0,0.0,0.0
1695726924228,-1.0097656,-0.0068359375,-0.16601562,-0.28125,-0.78125,0.03125,0.0,0.0,0.0
1695726924268,-1.0107422,0.00390625,-0.16308594,-0.375,0.15625,-0.15625,0.0,0.0,0.0
1695726924309,-1.0058594,-0.0029296875,-0.15136719,-0.75,-0.84375,0.21875,0.0,0.0,0.0
1695726924348,-1.0097656,0.001953125,-0.17480469,-0.15625,-0.34375,0.09375,0.0,0.0,0.0
1695726924388,-1.0009766,-0.015625,-0.14941406,-1.5,-0.90625,-0.15625,0.0,0.0,0.0
1695726924430,-1.0136719,0.005859375,-0.16210938,-0.375,-0.59375,-0.09375,0.0,0.0,0.0
1695726924468,-1.0019531,-0.0087890625,-0.15332031,-0.8125,-1.375,0.15625,-85.0625,-28.4375,-175.25
1695726924513,-1.0087891,0.0029296875,-0.15429688,0.90625,0.25,0.09375,0.0,0.0,0.0
1695726924568,-1.0078125,-0.0146484375,-0.15917969,-0.75,-1.03125,-0.21875,0.0,0.0,0.0
1695726924588,-1.0097656,0.005859375,-0.1640625,-0.4375,-0.28125,-0.21875,0.0,0.0,0.0
1695726924631,-1.0107422,-0.001953125,-0.15136719,-0.6875,-0.21875,0.65625,0.0,0.0,0.0
1695726924668,-1.0107422,-0.0029296875,-0.16308594,-0.75,0.15625,0.15625,0.0,0.0,0.0
1695726924714,-1.0078125,-0.00390625,-0.15039062,-0.21875,-0.28125,-0.09375,0.0,0.0,0.0
1695726924750,-1.0175781,0.00390625,-0.13671875,1.0,-0.34375,-0.15625,0.0,0.0,0.0
1695726924791,-1.0,-0.021484375,-0.15625,0.46875,-1.03125,0.15625,0.0,0.0,0.0
1695726924831,-1.0039062,0.00390625,-0.15332031,0.34375,-0.59375,-0.46875,0.0,0.0,0.0
1695726924887,-1.0087891,-0.0087890625,-0.16503906,0.78125,-0.03125,0.15625,0.0,0.0,0.0
1695726924912,-1.0048828,-0.0068359375,-0.15039062,-0.5625,-0.65625,-0.09375,0.0,0.0,0.0
1695726924949,-0.99902344,-0.0048828125,-0.15332031,-0.15625,-0.03125,0.03125,-88.625,-28.75,-174.1875
1695726924988,-1.0039062,-0.009765625,-0.13769531,0.71875,-0.28125,0.21875,0.0,0.0,0.0
1695726925029,-1.0126953,-0.0068359375,-0.15722656,-0.09375,0.1875,0.28125,0.0,0.0,0.0
1695726925068,-1.0126953,-0.0126953125,-0.15429688,0.15625,-0.15625,-0.40625,0.0,0.0,0.0
1695726925109,-1.0058594,-0.00390625,-0.15039062,-0.75,-0.96875,-0.6875,0.0,0.0,0.0
1695726925149,-1.0048828,0.0029296875,-0.14257812,0.71875,-0.71875,0.15625,0.0,0.0,0.0
1695726925189,-1.0019531,-0.0068359375,-0.15429688,-1.96875,-0.40625,0.03125,0.0,0.0,0.0
1695726925229,-1.0039062,-0.0146484375,-0.15429688,-0.4375,-0.71875,-0.09375,0.0,0.0,0.0
1695726925267,-1.0048828,-0.0029296875,-0.140625,0.34375,-0.28125,0.09375,0.0,0.0,0.0
1695726925308,-1.0009766,0.001953125,-0.15527344,-0.4375,-0.46875,-0.03125,0.0,0.0,0.0
1695726925347,-1.0107422,9.765625E-4,-0.15136719,-0.375,-0.09375,-0.09375,0.0,0.0,0.0
1695726925389,-1.0048828,-0.01171875,-0.15039062,-0.9375,-0.84375,-0.03125,0.0,0.0,0.0
1695726925430,-1.0107422,-0.01171875,-0.140625,1.3125,0.375,-0.15625,0.0,0.0,0.0
1695726925468,-1.0126953,-0.005859375,-0.15332031,-0.03125,-0.46875,-0.40625,-86.375,-28.75,-174.625
1695726925513,-1.0029297,-0.001953125,-0.16015625,0.46875,0.03125,0.09375,0.0,0.0,0.0
1695726925548,-0.9980469,0.0,-0.15527344,0.53125,-0.46875,0.15625,0.0,0.0,0.0
1695726925588,-1.0068359,-0.001953125,-0.171875,0.03125,0.15625,-0.15625,0.0,0.0,0.0
1695726925650,-0.99902344,-0.0078125,-0.16308594,0.46875,-0.15625,0.28125,0.0,0.0,0.0
1695726925669,-1.0048828,-0.0146484375,-0.15625,1.3125,0.1875,-0.03125,0.0,0.0,0.0
1695726925708,-1.0039062,-0.013671875,-0.17480469,-0.28125,0.15625,-0.15625,0.0,0.0,0.0
1695726925748,-1.0039062,-0.0078125,-0.140625,0.03125,-0.40625,0.15625,0.0,0.0,0.0
1695726925788,-1.0009766,-0.020507812,-0.15429688,0.65625,-0.53125,0.21875,0.0,0.0,0.0
1695726925828,-1.0029297,-0.0087890625,-0.15332031,0.28125,0.03125,-0.21875,0.0,0.0,0.0
1695726925867,-1.0019531,-0.0048828125,-0.15039062,1.875,0.625,0.21875,0.0,0.0,0.0
1695726925908,-1.0117188,-0.0068359375,-0.15136719,-0.6875,0.1875,-0.21875,0.0,0.0,0.0
1695726925949,-1.0253906,-0.0107421875,-0.14355469,0.78125,0.03125,0.40625,-85.8125,-29.5,-175.6875
1695726925988,-1.0078125,-0.020507812,-0.15039062,1.9375,0.25,0.21875,0.0,0.0,0.0
1695726926029,-1.0107422,0.00390625,-0.16699219,-1.625,-0.34375,-0.75,0.0,0.0,0.0
1695726926068,-1.0068359,0.005859375,-0.15820312,0.40625,-0.53125,-0.09375,0.0,0.0,0.0
1695726926110,-1.0107422,-0.0107421875,-0.1484375,0.65625,-0.09375,0.28125,0.0,0.0,0.0
1695726926149,-1.0107422,-0.00390625,-0.16015625,-1.65625,-0.21875,-0.09375,0.0,0.0,0.0
1695726926196,-1.0068359,0.0029296875,-0.15527344,0.46875,-0.53125,-0.09375,0.0,0.0,0.0
1695726926230,-1.0107422,0.0029296875,-0.16210938,0.53125,0.5,0.09375,0.0,0.0,0.0
1695726926269,-1.0009766,-0.0068359375,-0.14746094,-0.15625,0.03125,0.15625,0.0,0.0,0.0
1695726926309,-1.0058594,-0.0078125,-0.16503906,-0.34375,-1.1875,-0.03125,0.0,0.0,0.0
1695726926348,-1.0244141,0.0068359375,-0.15722656,0.90625,0.8125,-0.09375,0.0,0.0,0.0
1695726926409,-1.0087891,-0.01171875,-0.15527344,-0.625,-0.90625,0.03125,0.0,0.0,0.0
1695726926429,-1.0126953,9.765625E-4,-0.16113281,0.09375,-0.65625,-0.09375,0.0,0.0,0.0
1695726926468,-1.0068359,-0.0087890625,-0.15527344,0.59375,0.5625,0.40625,-85.5,-27.875,-175.5625
1695726926509,-1.0117188,-0.018554688,-0.15332031,-0.375,-0.71875,-0.15625,0.0,0.0,0.0
1695726926548,-1.0126953,-0.0029296875,-0.16308594,0.90625,0.5625,-0.15625,0.0,0.0,0.0
1695726926589,-1.0039062,-0.01171875,-0.16015625,0.59375,-0.90625,0.03125,0.0,0.0,0.0
1695726926629,-1.0058594,0.0146484375,-0.15234375,-0.4375,-0.34375,-0.09375,0.0,0.0,0.0
1695726926668,-1.0107422,-0.01171875,-0.14160156,0.15625,0.03125,0.34375,0.0,0.0,0.0
1695726926711,-1.0087891,-0.0048828125,-0.15234375,-1.25,-0.53125,0.15625,0.0,0.0,0.0
1695726926748,-1.0029297,-0.0087890625,-0.15332031,0.90625,-0.03125,0.15625,0.0,0.0,0.0
1695726926790,-1.0048828,-0.018554688,-0.16015625,-0.8125,-1.1875,0.03125,0.0,0.0,0.0
1695726926829,-1.0058594,0.001953125,-0.15820312,0.53125,-0.59375,0.09375,0.0,0.0,0.0
1695726926868,-1.0068359,-0.013671875,-0.14355469,0.53125,-0.03125,0.28125,0.0,0.0,0.0
1695726926910,-1.0029297,-0.01953125,-0.16699219,-0.5625,-0.65625,-0.15625,0.0,0.0,0.0
1695726926949,-1.0117188,0.001953125,-0.15722656,0.59375,-0.15625,-0.21875,-87.3125,-28.625,-175.5625
1695726926988,-1.0175781,-0.01171875,-0.16308594,-0.5625,-0.65625,0.34375,0.0,0.0,0.0
1695726927028,-1.0087891,-0.021484375,-0.14355469,-0.03125,-0.96875,0.09375,0.0,0.0,0.0
1695726927068,-1.0,0.0029296875,-0.14257812,0.59375,-0.09375,-0.40625,0.0,0.0,0.0
1695726927113,-1.0136719,-0.005859375,-0.15722656,-0.34375,0.03125,0.03125,0.0,0.0,0.0
1695726927169,-1.0078125,-0.013671875,-0.16699219,-0.09375,-0.84375,0.15625,0.0,0.0,0.0
1695726927189,-1.0136719,-0.009765625,-0.140625,-0.03125,0.1875,-0.03125,0.0,0.0,0.0
1695726927234,-1.0048828,-0.013671875,-0.13476562,-0.21875,-0.46875,0.09375,0.0,0.0,0.0
1695726927268,-1.0009766,0.0029296875,-0.1484375,0.46875,-0.21875,0.03125,0.0,0.0,0.0
1695726927330,-1.015625,-0.0078125,-0.13671875,-0.28125,-0.46875,0.09375,0.0,0.0,0.0
1695726927349,-1.0146484,-0.0087890625,-0.16113281,0.09375,-0.21875,-0.09375,0.0,0.0,0.0
1695726927393,-1.0048828,0.005859375,-0.1484375,-0.21875,-0.09375,-0.15625,0.0,0.0,0.0
1695726927435,-1.0048828,0.0048828125,-0.15039062,-0.03125,-0.84375,0.09375,0.0,0.0,0.0
1695726927467,-1.0029297,-0.0126953125,-0.15429688,-0.28125,-0.34375,0.21875,-85.8125,-29.8125,-174.1875
1695726927509,-1.0029297,-0.009765625,-0.140625,-0.8125,-0.03125,-0.09375,0.0,0.0,0.0
1695726927548,-1.0048828,-0.016601562,-0.15917969,-0.4375,-1.1875,-0.03125,0.0,0.0,0.0
1695726927589,-1.0107422,0.005859375,-0.13476562,0.71875,0.625,0.03125,0.0,0.0,0.0
1695726927629,-1.0078125,-0.0146484375,-0.14746094,-0.75,-0.71875,-0.03125,0.0,0.0,0.0
1695726927668,-1.0126953,-0.0048828125,-0.15136719,0.21875,-0.28125,0.09375,0.0,0.0,0.0
1695726927769,-1.0097656,-0.01953125,-0.14160156,0.28125,-0.34375,-0.09375,0.0,0.0,0.0
1695726927774,-1.0097656,-0.0029296875,-0.16210938,-0.28125,-0.59375,-0.40625,0.0,0.0,0.0
1695726927787,-1.0068359,-0.0068359375,-0.16015625,0.84375,0.09375,-0.03125,0.0,0.0,0.0
1695726927828,-1.0058594,-0.016601562,-0.14550781,0.15625,-0.15625,0.21875,0.0,0.0,0.0
1695726927867,-1.0117188,-0.005859375,-0.15332031,-0.4375,-0.28125,-0.03125,0.0,0.0,0.0
1695726927927,-1.0117188,-0.0126953125,-0.15136719,-0.09375,-0.53125,0.03125,0.0,0.0,0.0
1695726927947,-1.0019531,-0.009765625,-0.14746094,1.0625,-0.53125,0.09375,-86.25,-29.375,-175.125
1695726927988,-1.0097656,-0.0078125,-0.16308594,-0.4375,0.03125,-0.15625,0.0,0.0,0.0
1695726928028,-1.0048828,0.0,-0.14941406,0.71875,-0.03125,0.09375,0.0,0.0,0.0
1695726928068,-1.0039062,-0.016601562,-0.1484375,-0.5625,-0.46875,0.15625,0.0,0.0,0.0
1695726928112,-1.0107422,-0.0126953125,-0.14648438,0.71875,-0.46875,0.09375,0.0,0.0,0.0
1695726928168,-1.0087891,-0.013671875,-0.15722656,-0.09375,-0.46875,0.28125,0.0,0.0,0.0
1695726928188,-1.0136719,9.765625E-4,-0.14257812,-0.15625,-0.71875,-0.03125,0.0,0.0,0.0
1695726928229,-1.0068359,-0.0146484375,-0.15039062,0.90625,-0.15625,0.21875,0.0,0.0,0.0
1695726928268,-1.0078125,-0.0068359375,-0.14746094,-0.75,-0.53125,-0.34375,0.0,0.0,0.0
1695726928309,-1.0097656,-0.0029296875,-0.13867188,0.21875,-0.28125,0.21875,0.0,0.0,0.0
1695726928348,-0.9941406,-0.009765625,-0.14453125,0.28125,0.15625,0.21875,0.0,0.0,0.0
1695726928389,-1.0097656,-0.0087890625,-0.13476562,-0.875,-0.09375,-0.03125,0.0,0.0,0.0
1695726928429,-1.0068359,-0.0107421875,-0.14355469,0.21875,0.09375,0.09375,0.0,0.0,0.0
1695726928470,-1.0058594,-9.765625E-4,-0.14355469,-0.21875,-0.09375,-0.09375,-85.375,-27.4375,-174.9375
1695726928509,-1.0097656,-0.009765625,-0.16503906,-0.34375,-0.96875,0.21875,0.0,0.0,0.0
1695726928552,-1.0126953,0.005859375,-0.13964844,-0.09375,0.5625,-0.09375,0.0,0.0,0.0
1695726928588,-1.0039062,-0.013671875,-0.15136719,-0.4375,0.09375,-0.09375,0.0,0.0,0.0
1695726928628,-1.0009766,-9.765625E-4,-0.15136719,-0.34375,0.09375,0.15625,0.0,0.0,0.0
1695726928689,-1.0058594,-0.013671875,-0.14550781,-0.28125,-0.59375,0.09375,0.0,0.0,0.0
1695726928708,-1.0097656,9.765625E-4,-0.14257812,-0.03125,-0.28125,-0.15625,0.0,0.0,0.0
1695726928749,-1.0048828,0.001953125,-0.15429688,-0.375,-0.28125,0.09375,0.0,0.0,0.0
1695726928789,-1.0009766,-0.0078125,-0.14941406,-0.21875,-0.71875,0.15625,0.0,0.0,0.0
1695726928829,-1.0107422,0.0087890625,-0.15527344,-0.15625,0.1875,-0.15625,0.0,0.0,0.0
1695726928868,-0.9970703,-0.0068359375,-0.14355469,-0.03125,-0.28125,0.21875,0.0,0.0,0.0
1695726928909,-1.0068359,0.0078125,-0.14355469,-0.5625,-0.53125,0.15625,0.0,0.0,0.0
1695726928949,-1.0107422,-0.016601562,-0.16113281,0.40625,-0.09375,0.09375,-85.8125,-27.6875,-174.625
1695726928989,-1.0029297,-0.001953125,-0.15527344,-1.25,0.03125,-0.21875,0.0,0.0,0.0
1695726929028,-0.9970703,-0.0126953125,-0.1328125,0.53125,-0.09375,0.65625,0.0,0.0,0.0
1695726929068,-1.0078125,-0.009765625,-0.13671875,-0.03125,0.03125,0.09375,0.0,0.0,0.0
1695726929109,-1.0029297,-0.0078125,-0.13476562,0.90625,0.3125,-0.09375,0.0,0.0,0.0
1695726929148,-0.99902344,0.0048828125,-0.15625,-0.875,-0.65625,0.03125,0.0,0.0,0.0
1695726929190,-1.0214844,0.005859375,-0.14453125,0.40625,0.75,0.09375,0.0,0.0,0.0
1695726929229,-0.99902344,-0.01171875,-0.12988281,0.65625,-0.53125,0.34375,0.0,0.0,0.0
1695726929269,-1.015625,0.013671875,-0.15625,0.40625,0.15625,0.15625,0.0,0.0,0.0
1695726929309,-1.0019531,-0.0068359375,-0.14746094,-0.875,0.03125,-0.03125,0.0,0.0,0.0
1695726929348,-1.0029297,9.765625E-4,-0.14453125,-0.6875,-0.46875,-0.21875,0.0,0.0,0.0
1695726929389,-1.0058594,-0.01171875,-0.14941406,0.34375,-0.09375,0.28125,0.0,0.0,0.0
1695726929448,-1.0068359,-0.01171875,-0.16210938,0.28125,0.03125,0.09375,0.0,0.0,0.0
1695726929468,-1.0058594,-0.0126953125,-0.15136719,-0.09375,-0.15625,0.03125,-86.25,-28.9375,-173.75
1695726929510,-1.0019531,-0.0029296875,-0.14648438,0.78125,0.03125,0.09375,0.0,0.0,0.0
1695726929570,-1.0019531,-0.0087890625,-0.15039062,0.90625,0.1875,0.34375,0.0,0.0,0.0
1695726929588,-1.0097656,-0.00390625,-0.15722656,0.3125,-0.1875,-0.25,0.0,0.0,0.0
1695726929632,-1.0166016,0.005859375,-0.14550781,0.625,0.71875,0.125,0.0,0.0,0.0
1695726929670,-1.0166016,-0.018554688,-0.14160156,0.0625,-0.4375,0.3125,0.0,0.0,0.0
1695726929710,-1.0166016,0.00390625,-0.15136719,1.09375,0.1875,-0.3125,0.0,0.0,0.0
1695726929752,-1.0068359,-0.0107421875,-0.14941406,0.25,0.3125,-0.1875,0.0,0.0,0.0
1695726929793,-1.0146484,9.765625E-4,-0.1640625,-0.125,0.0,-0.25,0.0,0.0,0.0
1695726929831,-1.0068359,-0.0048828125,-0.14550781,-0.0625,-0.3125,0.0,0.0,0.0,0.0
1695726929870,-1.0126953,-0.005859375,-0.15332031,0.625,0.1875,-0.1875,0.0,0.0,0.0
1695726929908,-1.0068359,-0.0078125,-0.15527344,-0.1875,-0.25,0.0,0.0,0.0,0.0
1695726929948,-1.0136719,9.765625E-4,-0.15527344,0.375,0.46875,-0.25,-86.875,-28.0,-173.875
1695726929991,-1.015625,-0.00390625,-0.16015625,-0.375,-0.75,0.125,0.0,0.0,0.0
1695726930029,-1.0117188,0.0,-0.15722656,0.6875,0.3125,-0.25,0.0,0.0,0.0
1695726930068,-1.0175781,-0.001953125,-0.15136719,0.1875,-0.375,-0.125,0.0,0.0,0.0
1695726930112,-1.0117188,0.0048828125,-0.14648438,-0.375,0.1875,-0.3125,0.0,0.0,0.0
1695726930148,-1.0087891,-0.0107421875,-0.16015625,-0.375,0.1875,0.3125,0.0,0.0,0.0
1695726930207,-1.0039062,-0.0087890625,-0.13183594,0.625,0.375,0.0625,0.0,0.0,0.0
1695726930228,-1.0097656,-0.0107421875,-0.16015625,-0.5,-0.1875,-0.3125,0.0,0.0,0.0
1695726930271,-1.0058594,-0.001953125,-0.15429688,0.90625,0.40625,-0.375,0.0,0.0,0.0
1695726930309,-1.0136719,0.001953125,-0.140625,0.4375,-0.25,-0.125,0.0,0.0,0.0
1695726930349,-1.0039062,-0.00390625,-0.14941406,-0.25,0.1875,-0.375,0.0,0.0,0.0
1695726930392,-1.0117188,-0.005859375,-0.15722656,-0.0625,0.125,0.0,0.0,0.0,0.0
1695726930430,-1.0175781,-0.01171875,-0.14160156,-0.1875,-0.3125,-0.0625,0.0,0.0,0.0
1695726930470,-1.0068359,0.0029296875,-0.14257812,0.8125,0.0,-0.1875,-85.375,-26.9375,-173.875
1695726930508,-1.0058594,0.001953125,-0.14550781,0.0625,0.3125,0.0,0.0,0.0,0.0
1695726930548,-1.0068359,-0.009765625,-0.14550781,-0.3125,-0.1875,-0.25,0.0,0.0,0.0
1695726930590,-1.0048828,-0.001953125,-0.15039062,-0.125,-0.125,-0.375,0.0,0.0,0.0
1695726930628,-1.0117188,0.0068359375,-0.15429688,-0.0625,0.78125,-0.0625,0.0,0.0,0.0
1695726930670,-1.0136719,0.001953125,-0.140625,-0.59375,-0.0625,0.0,0.0,0.0,0.0
1695726930709,-1.0244141,-0.0087890625,-0.14648438,-0.5,0.125,0.0625,0.0,0.0,0.0
1695726930768,-1.0,-0.013671875,-0.15039062,-0.59375,-0.8125,-0.125,0.0,0.0,0.0
1695726930788,-1.0068359,-0.0048828125,-0.15234375,0.5625,0.375,-0.1875,0.0,0.0,0.0
1695726930828,-1.0107422,-0.0107421875,-0.15234375,-0.53125,-0.75,-0.125,0.0,0.0,0.0
1695726930869,-1.0097656,-0.001953125,-0.140625,-0.3125,0.25,-0.125,0.0,0.0,0.0
1695726930912,-1.0058594,-0.013671875,-0.15722656,0.375,0.0,0.0,0.0,0.0,0.0
1695726930967,-1.0166016,-0.0029296875,-0.15429688,0.125,0.0625,-0.25,-86.875,-29.8125,-173.875
1695726930987,-1.0117188,-9.765625E-4,-0.14746094,-0.375,-0.25,0.0625,0.0,0.0,0.0
1695726931032,-1.0068359,-0.018554688,-0.15234375,0.4375,0.0,0.1875,0.0,0.0,0.0
1695726931068,-1.0058594,-0.0068359375,-0.14941406,0.5625,0.25,-0.25,0.0,0.0,0.0
1695726931108,-1.0146484,0.001953125,-0.13085938,0.96875,0.375,-0.3125,0.0,0.0,0.0
1695726931148,-1.0078125,0.0,-0.16601562,0.25,-0.125,0.125,0.0,0.0,0.0
1695726931188,-1.0048828,-0.01171875,-0.14453125,0.625,-0.0625,-0.25,0.0,0.0,0.0
1695726931228,-1.0058594,-0.001953125,-0.15136719,-0.59375,0.0,-0.3125,0.0,0.0,0.0
1695726931270,-0.9980469,-0.0078125,-0.15234375,0.5,-0.4375,0.1875,0.0,0.0,0.0
1695726931309,-1.0019531,-0.009765625,-0.15136719,0.0625,0.25,0.125,0.0,0.0,0.0
1695726931348,-1.0097656,-0.00390625,-0.15625,0.1875,-0.25,-0.375,0.0,0.0,0.0
1695726931407,-1.0136719,9.765625E-4,-0.140625,0.1875,0.125,-0.125,0.0,0.0,0.0
1695726931426,-1.0048828,-0.01171875,-0.15722656,-0.0625,-0.8125,-0.3125,0.0,0.0,0.0
1695726931467,-1.0048828,-0.0087890625,-0.15917969,-0.25,0.125,-0.25,-86.25,-28.625,-174.5
1695726931509,-1.0146484,-0.005859375,-0.14355469,-0.4375,-0.25,-0.3125,0.0,0.0,0.0
1695726931548,-1.0097656,-0.0048828125,-0.15136719,0.125,0.125,-0.125,0.0,0.0,0.0
1695726931590,-1.0097656,-0.0029296875,-0.14355469,-0.25,-0.0625,-0.0625,0.0,0.0,0.0
1695726931628,-1.0019531,0.0029296875,-0.14257812,-0.375,-0.125,-0.1875,0.0,0.0,0.0
1695726931669,-1.0068359,-0.0068359375,-0.14257812,-0.25,-0.5625,-0.125,0.0,0.0,0.0
1695726931728,-1.0117188,-0.0048828125,-0.12792969,0.1875,-0.1875,-0.3125,0.0,0.0,0.0
1695726931749,-1.0107422,-0.0087890625,-0.14648438,-0.3125,0.1875,-0.3125,0.0,0.0,0.0
1695726931788,-1.0126953,-0.013671875,-0.15332031,0.0625,-0.5,-0.0625,0.0,0.0,0.0
1695726931829,-1.0166016,-0.013671875,-0.14453125,-0.375,-0.375,-0.125,0.0,0.0,0.0
1695726931869,-1.0224609,-0.0087890625,-0.14257812,0.0,0.0625,-0.375,0.0,0.0,0.0
1695726931909,-1.0136719,-0.0048828125,-0.15625,-0.375,-0.375,-0.25,0.0,0.0,0.0
1695726931948,-1.0107422,-0.0087890625,-0.14453125,0.6875,-0.125,0.0,-84.625,-28.75,-174.625
1695726931988,-1.0078125,-0.0087890625,-0.140625,0.0625,-0.375,-0.375,0.0,0.0,0.0
1695726932029,-1.0146484,-0.0029296875,-0.1484375,0.25,0.0,-0.5,0.0,0.0,0.0
1695726932068,-1.0048828,0.001953125,-0.15136719,0.125,-0.25,-0.1875,0.0,0.0,0.0
1695726932108,-1.0039062,-0.0078125,-0.14257812,0.4375,-0.1875,-0.25,0.0,0.0,0.0
1695726932148,-1.0166016,-0.0029296875,-0.16113281,0.375,0.25,-0.4375,0.0,0.0,0.0
1695726932189,-1.0117188,-0.013671875,-0.140625,-0.25,-0.375,-0.1875,0.0,0.0,0.0
1695726932248,-1.0078125,-0.0029296875,-0.15527344,0.21875,0.15625,-0.125,0.0,0.0,0.0
1695726932268,-0.9951172,-0.0068359375,-0.14453125,-0.15625,0.03125,-0.125,0.0,0.0,0.0
1695726932309,-1.0097656,-0.0078125,-0.14746094,-0.21875,0.40625,-0.1875,0.0,0.0,0.0
1695726932348,-1.0068359,-0.0126953125,-0.13769531,-0.03125,0.15625,0.0,0.0,0.0,0.0
1695726932390,-1.0087891,-0.0087890625,-0.14550781,-0.53125,0.09375,0.0,0.0,0.0,0.0
1695726932428,-1.0,-0.0146484375,-0.14355469,0.03125,0.53125,0.0,0.0,0.0,0.0
1695726932490,-1.0117188,-9.765625E-4,-0.15234375,-0.03125,0.71875,-0.125,-85.1875,-28.625,-174.5
1695726932508,-1.0107422,0.00390625,-0.14355469,-0.34375,0.46875,0.03125,0.0,0.0,0.0
1695726932549,-1.0097656,-0.005859375,-0.15039062,-0.75,0.21875,0.03125,0.0,0.0,0.0
1695726932609,-1.0136719,-0.0087890625,-0.13964844,-0.46875,0.15625,0.0,0.0,0.0,0.0
1695726932628,-0.99902344,-0.015625,-0.14355469,-0.53125,-0.15625,0.09375,0.0,0.0,0.0
1695726932670,-1.0058594,-0.0078125,-0.14257812,-0.34375,0.21875,0.0,0.0,0.0,0.0
1695726932708,-1.0126953,-0.0029296875,-0.14257812,-0.03125,0.34375,0.0,0.0,0.0,0.0
1695726932748,-1.0175781,-0.0126953125,-0.1484375,-0.09375,-0.03125,0.09375,0.0,0.0,0.0
1695726932793,-0.99902344,-0.015625,-0.15136719,0.21875,0.28125,0.0,0.0,0.0,0.0
1695726932829,-1.015625,-0.0068359375,-0.15136719,0.21875,0.59375,-0.0625,0.0,0.0,0.0
1695726932873,-1.0107422,-0.0087890625,-0.14160156,0.34375,0.40625,0.0,0.0,0.0,0.0
1695726932908,-1.0087891,-0.0068359375,-0.13671875,0.21875,0.28125,0.21875,0.0,0.0,0.0
1695726932949,-1.0107422,-0.0087890625,-0.14941406,-0.40625,0.28125,0.0,-86.875,-28.75,-175.6875
1695726932989,-1.0107422,-0.0048828125,-0.13476562,0.625,-0.09375,0.21875,0.0,0.0,0.0
1695726933028,-1.0068359,-0.0078125,-0.15332031,-0.53125,0.15625,0.03125,0.0,0.0,0.0
1695726933070,-1.0175781,-0.01171875,-0.15722656,-0.03125,0.40625,0.15625,0.0,0.0,0.0
1695726933112,-1.0107422,-0.005859375,-0.13769531,0.21875,0.15625,0.03125,0.0,0.0,0.0
1695726933150,-1.0039062,-0.0078125,-0.1484375,-0.53125,-0.15625,0.15625,0.0,0.0,0.0
1695726933196,-1.0029297,-0.005859375,-0.15234375,0.28125,0.46875,0.09375,0.0,0.0,0.0
1695726933248,-1.0117188,-0.009765625,-0.15136719,-0.28125,0.71875,0.34375,0.0,0.0,0.0
1695726933269,-1.0058594,-0.0048828125,-0.14550781,-0.34375,0.65625,0.21875,0.0,0.0,0.0
1695726933312,-1.0146484,-0.001953125,-0.14160156,-0.28125,0.28125,0.15625,0.0,0.0,0.0
1695726933348,-1.0107422,-0.00390625,-0.14550781,-1.125,-0.25,0.15625,0.0,0.0,0.0
1695726933391,-0.99902344,-0.0126953125,-0.15917969,-0.09375,-0.25,0.15625,0.0,0.0,0.0
1695726933427,-1.0087891,-0.0068359375,-0.14160156,-0.28125,0.21875,0.09375,0.0,0.0,0.0
1695726933472,-1.0097656,0.001953125,-0.15332031,-0.15625,0.40625,0.09375,-85.5,-29.9375,-176.125
1695726933510,-1.0068359,-0.0068359375,-0.15136719,-0.09375,0.15625,0.40625,0.0,0.0,0.0
1695726933555,-1.0126953,-0.0078125,-0.15136719,-0.15625,0.40625,0.0,0.0,0.0,0.0
1695726933589,-1.0068359,-0.0087890625,-0.13964844,-0.09375,0.34375,0.0,0.0,0.0,0.0
1695726933628,-1.0136719,-0.013671875,-0.15722656,-0.21875,0.53125,0.0,0.0,0.0,0.0
1695726933670,-1.0019531,-0.005859375,-0.15429688,-0.15625,0.34375,0.0,0.0,0.0,0.0
1695726933709,-0.9980469,-0.009765625,-0.14941406,0.34375,0.53125,-0.1875,0.0,0.0,0.0
1695726933749,-1.0068359,-0.0029296875,-0.14941406,0.59375,0.59375,0.15625,0.0,0.0,0.0
1695726933808,-1.0019531,-0.009765625,-0.15722656,-0.09375,0.40625,0.15625,0.0,0.0,0.0
1695726933828,-0.9980469,-0.0078125,-0.15039062,0.28125,0.78125,-0.0625,0.0,0.0,0.0
1695726933869,-1.0136719,0.001953125,-0.15039062,-0.53125,0.53125,0.09375,0.0,0.0,0.0
1695726933908,-1.0195312,-0.009765625,-0.13964844,-0.15625,0.21875,0.28125,0.0,0.0,0.0
1695726933949,-1.0146484,-0.0078125,-0.14355469,-0.15625,-0.09375,0.0,-86.875,-28.75,-174.625
1695726934008,-0.9970703,-0.00390625,-0.15039062,-0.34375,0.53125,-0.125,0.0,0.0,0.0
1695726934028,-1.0068359,-0.005859375,-0.15722656,0.21875,0.46875,0.21875,0.0,0.0,0.0
1695726934069,-1.0146484,9.765625E-4,-0.14160156,-0.53125,0.09375,0.0,0.0,0.0,0.0
1695726934108,-1.0009766,-0.0029296875,-0.15527344,-0.15625,0.59375,-0.0625,0.0,0.0,0.0
1695726934148,-1.0029297,-0.00390625,-0.14941406,0.21875,0.90625,-0.0625,0.0,0.0,0.0
1695726934189,-1.0097656,0.001953125,-0.14648438,0.40625,0.65625,0.34375,0.0,0.0,0.0
1695726934228,-1.0107422,-0.0029296875,-0.15332031,0.09375,0.40625,-0.0625,0.0,0.0,0.0
1695726934268,-1.0078125,-0.0087890625,-0.13867188,-0.09375,0.03125,-0.3125,0.0,0.0,0.0
1695726934309,-1.0117188,-0.0048828125,-0.16015625,0.09375,0.34375,0.09375,0.0,0.0,0.0
1695726934349,-1.0117188,9.765625E-4,-0.16113281,0.03125,0.28125,0.15625,0.0,0.0,0.0
1695726934388,-1.0126953,-0.0087890625,-0.14160156,-0.03125,0.46875,0.15625,0.0,0.0,0.0
1695726934429,-1.0019531,0.001953125,-0.14746094,0.03125,0.78125,0.0,0.0,0.0,0.0
1695726934468,-1.0087891,-0.001953125,-0.14257812,-0.15625,0.03125,0.0,-86.6875,-28.625,-175.125
1695726934508,-1.0126953,-0.005859375,-0.14746094,0.09375,0.21875,-0.1875,0.0,0.0,0.0
1695726934549,-1.0048828,-0.009765625,-0.140625,-0.09375,0.03125,-0.0625,0.0,0.0,0.0
1695726934589,-1.0009766,-0.009765625,-0.16210938,-0.21875,0.15625,-0.1875,0.0,0.0,0.0
1695726934628,-1.0166016,0.0068359375,-0.1640625,0.40625,0.59375,-0.125,0.0,0.0,0.0
1695726934670,-1.0107422,-0.0048828125,-0.15332031,-0.15625,0.15625,0.15625,0.0,0.0,0.0
1695726934709,-1.0097656,-0.0087890625,-0.15527344,-0.09375,0.09375,0.03125,0.0,0.0,0.0
1695726934771,-1.0087891,-0.013671875,-0.15625,-0.34375,0.15625,0.0,0.0,0.0,0.0
1695726934788,-1.0126953,-0.013671875,-0.14648438,-0.03125,0.28125,0.0,0.0,0.0,0.0
1695726934828,-1.0019531,-0.0126953125,-0.1484375,-0.28125,0.09375,0.03125,0.0,0.0,0.0
1695726934869,-1.0195312,-0.005859375,-0.13867188,-0.6875,0.03125,0.0,0.0,0.0,0.0
1695726934908,-1.0214844,-0.0029296875,-0.15820312,-0.46875,-0.5625,0.28125,0.0,0.0,0.0
1695726934949,-1.0,-0.0078125,-0.16210938,-0.6875,-0.6875,0.09375,-86.6875,-28.625,-175.5625
1695726934994,-1.0107422,0.0029296875,-0.14648438,-0.28125,-0.09375,0.0,0.0,0.0,0.0
1695726935028,-1.0068359,-0.0029296875,-0.1484375,-0.09375,0.15625,0.28125,0.0,0.0,0.0
1695726935074,-1.0117188,-0.0029296875,-0.1484375,0.03125,-0.15625,0.15625,0.0,0.0,0.0
1695726935108,-1.0146484,-0.0048828125,-0.15234375,-0.21875,-0.1875,0.03125,0.0,0.0,0.0
1695726935150,-1.0087891,0.001953125,-0.13769531,-0.34375,-0.1875,0.09375,0.0,0.0,0.0
1695726935192,-1.0068359,-0.0078125,-0.15625,-0.03125,-0.4375,0.15625,0.0,0.0,0.0
1695726935227,-1.0058594,-0.0048828125,-0.15136719,-0.09375,-0.1875,0.09375,0.0,0.0,0.0
1695726935269,-1.0029297,-0.0048828125,-0.13769531,-0.03125,0.15625,0.15625,0.0,0.0,0.0
1695726935309,-1.0078125,-0.005859375,-0.13769531,-0.65625,-0.1875,0.09375,0.0,0.0,0.0
1695726935348,-1.0019531,0.0078125,-0.15136719,-0.15625,-0.3125,0.21875,0.0,0.0,0.0
1695726935389,-1.0087891,-0.0126953125,-0.15527344,-0.59375,0.03125,0.09375,0.0,0.0,0.0
1695726935429,-1.0117188,0.005859375,-0.13867188,-0.09375,-0.03125,0.15625,0.0,0.0,0.0
1695726935473,-1.0068359,-0.0087890625,-0.15429688,-0.15625,-0.09375,0.28125,-85.5,-28.9375,-174.0625
1695726935528,-1.0087891,-0.0087890625,-0.14160156,-0.03125,0.09375,0.09375,0.0,0.0,0.0
1695726935549,-1.0078125,-0.001953125,-0.13574219,-0.40625,-0.15625,0.0,0.0,0.0,0.0
1695726935589,-0.9970703,-0.01171875,-0.13574219,-0.46875,-0.5,0.28125,0.0,0.0,0.0
1695726935628,-1.015625,-0.015625,-0.1484375,-0.09375,0.09375,-0.0625,0.0,0.0,0.0
1695726935673,-1.0126953,0.00390625,-0.14550781,-0.03125,0.15625,-0.0625,0.0,0.0,0.0
1695726935753,-1.015625,-0.009765625,-0.15820312,-0.21875,-0.1875,0.0,0.0,0.0,0.0
1695726935755,-1.0107422,-0.0029296875,-0.14746094,-0.34375,-0.1875,0.03125,0.0,0.0,0.0
1695726935789,-1.0058594,-0.0068359375,-0.14941406,-0.09375,0.09375,-0.1875,0.0,0.0,0.0
1695726935831,-1.0126953,0.0029296875,-0.14257812,-1.0,0.09375,-0.3125,0.0,0.0,0.0
1695726935869,-1.015625,-0.016601562,-0.15234375,0.75,-0.15625,0.46875,0.0,0.0,0.0
1695726935908,-1.0107422,-0.01171875,-0.1484375,-0.21875,0.21875,0.0,0.0,0.0,0.0
1695726935948,-1.0087891,-0.0078125,-0.14941406,0.46875,0.28125,-0.125,-86.6875,-28.9375,-174.8125
1695726935989,-1.0039062,0.001953125,-0.13964844,-0.21875,0.34375,-0.25,0.0,0.0,0.0
1695726936028,-1.0087891,-0.0048828125,-0.15917969,-0.6875,-0.3125,-0.125,0.0,0.0,0.0
1695726936073,-1.0107422,-0.01171875,-0.15039062,0.09375,-0.1875,-0.0625,0.0,0.0,0.0
1695726936108,-1.0019531,-0.01171875,-0.15527344,-0.03125,0.09375,-0.375,0.0,0.0,0.0
1695726936153,-1.0048828,-0.0048828125,-0.15527344,0.21875,0.15625,-0.4375,0.0,0.0,0.0
1695726936193,-1.0058594,-0.001953125,-0.14257812,-0.09375,-0.09375,0.0,0.0,0.0,0.0
1695726936227,-1.0087891,0.0048828125,-0.1484375,-0.65625,-0.5,0.15625,0.0,0.0,0.0
1695726936287,-1.0126953,-0.0107421875,-0.1484375,-0.65625,-0.25,-0.0625,0.0,0.0,0.0
1695726936307,-1.0,-0.0107421875,-0.14355469,0.15625,0.28125,-0.1875,0.0,0.0,0.0
1695726936348,-1.0068359,-0.0048828125,-0.14257812,0.03125,0.09375,0.09375,0.0,0.0,0.0
1695726936388,-1.0136719,-0.0078125,-0.140625,-0.40625,-0.1875,-0.0625,0.0,0.0,0.0
1695726936428,-1.0097656,-0.0087890625,-0.140625,-0.21875,-0.4375,-0.125,0.0,0.0,0.0
1695726936469,-1.0019531,9.765625E-4,-0.14941406,0.40625,0.09375,0.03125,-85.375,-28.0,-174.625
1695726936508,-1.0039062,-0.0029296875,-0.14746094,0.46875,0.46875,0.09375,0.0,0.0,0.0
1695726936550,-1.0117188,-0.005859375,-0.14941406,-0.65625,0.46875,-0.0625,0.0,0.0,0.0
1695726936589,-1.015625,-0.0029296875,-0.13769531,-0.09375,0.28125,0.21875,0.0,0.0,0.0
1695726936628,-1.0097656,-0.015625,-0.13378906,-1.0625,-0.03125,0.09375,0.0,0.0,0.0
1695726936668,-1.0097656,-0.00390625,-0.14941406,-1.4375,-0.03125,0.03125,0.0,0.0,0.0
1695726936708,-1.0087891,-0.016601562,-0.14257812,-0.46875,-0.3125,0.03125,0.0,0.0,0.0
1695726936749,-1.0146484,0.0068359375,-0.15625,-0.6875,0.21875,-0.1875,0.0,0.0,0.0
1695726936789,-1.0068359,-9.765625E-4,-0.14160156,-0.15625,0.21875,0.15625,0.0,0.0,0.0
1695726936828,-1.015625,-0.013671875,-0.14160156,-0.21875,0.46875,0.15625,0.0,0.0,0.0
1695726936869,-1.0117188,-0.0107421875,-0.14453125,-0.03125,0.28125,0.03125,0.0,0.0,0.0
1695726936909,-1.0126953,-0.0126953125,-0.14746094,-0.09375,0.28125,-0.0625,0.0,0.0,0.0
1695726936949,-1.0136719,-0.0107421875,-0.1640625,0.15625,0.21875,0.03125,-85.8125,-27.6875,-173.625
1695726936989,-1.0117188,-0.005859375,-0.14453125,0.53125,0.53125,0.03125,0.0,0.0,0.0
1695726937050,-1.0195312,-0.0048828125,-0.15234375,-0.6875,0.40625,0.15625,0.0,0.0,0.0
1695726937068,-1.0039062,-0.01953125,-0.14648438,0.28125,-0.3125,0.59375,0.0,0.0,0.0
1695726937108,-1.0087891,-0.0048828125,-0.14746094,0.15625,0.59375,-0.0625,0.0,0.0,0.0
1695726937149,-1.0058594,-0.005859375,-0.14453125,0.34375,0.71875,0.0,0.0,0.0,0.0
1695726937189,-1.0126953,-0.0078125,-0.14257812,0.15625,0.59375,0.28125,0.0,0.0,0.0
1695726937229,-1.0146484,-0.0029296875,-0.14257812,0.34375,0.53125,0.03125,0.0,0.0,0.0
1695726937268,-1.0048828,0.0029296875,-0.15722656,-0.03125,0.53125,0.0,0.0,0.0,0.0
1695726937308,-1.0078125,-0.013671875,-0.13769531,-0.03125,0.28125,0.03125,0.0,0.0,0.0
1695726937352,-1.0019531,-0.0126953125,-0.14941406,0.15625,0.28125,0.40625,0.0,0.0,0.0
1695726937388,-1.0097656,-0.0078125,-0.15722656,-0.03125,0.46875,0.21875,0.0,0.0,0.0
1695726937428,-1.0175781,-0.0048828125,-0.14160156,-0.28125,0.40625,0.03125,0.0,0.0,0.0
1695726937469,-1.0087891,-0.005859375,-0.15234375,-0.59375,0.09375,0.28125,-86.25,-28.1875,-175.875
1695726937509,-1.0039062,-0.016601562,-0.15527344,-1.0,0.40625,0.15625,0.0,0.0,0.0
1695726937549,-1.0107422,-0.001953125,-0.14355469,-0.65625,0.28125,0.21875,0.0,0.0,0.0
1695726937589,-1.0087891,-0.0078125,-0.140625,-0.28125,0.28125,0.28125,0.0,0.0,0.0
1695726937628,-1.0107422,-0.015625,-0.15039062,-0.15625,0.59375,0.28125,0.0,0.0,0.0
1695726937671,-1.0146484,-0.0029296875,-0.12988281,-0.59375,-0.09375,0.40625,0.0,0.0,0.0
1695726937708,-1.0009766,-0.0087890625,-0.14257812,-0.03125,0.71875,0.15625,0.0,0.0,0.0
1695726937749,-1.0136719,0.001953125,-0.13769531,-0.09375,0.65625,0.21875,0.0,0.0,0.0
1695726937808,-1.0175781,-0.0029296875,-0.1484375,-0.34375,0.34375,0.40625,0.0,0.0,0.0
1695726937828,-1.0048828,-0.0048828125,-0.15625,0.46875,0.15625,0.28125,0.0,0.0,0.0
1695726937870,-1.0087891,-0.001953125,-0.14160156,0.03125,0.78125,0.0,0.0,0.0,0.0
1695726937909,-1.0039062,-9.765625E-4,-0.15234375,0.40625,0.53125,0.40625,0.0,0.0,0.0
1695726937951,-1.0048828,9.765625E-4,-0.14648438,-0.03125,0.53125,0.34375,-85.5,-28.1875,-173.75
1695726937988,-0.9970703,-0.0107421875,-0.14550781,-0.40625,0.59375,0.03125,0.0,0.0,0.0
1695726938028,-1.0136719,-0.0107421875,-0.13867188,-0.09375,0.46875,0.15625,0.0,0.0,0.0
1695726938070,-1.0146484,9.765625E-4,-0.14257812,0.03125,0.40625,0.28125,0.0,0.0,0.0
1695726938108,-1.0048828,0.0,-0.15039062,0.09375,0.46875,0.0,0.0,0.0,0.0
1695726938152,-1.0136719,-0.001953125,-0.13964844,-0.03125,0.59375,0.0,0.0,0.0,0.0
1695726938189,-1.0097656,-0.0048828125,-0.14550781,-0.21875,0.53125,0.15625,0.0,0.0,0.0
1695726938228,-1.0029297,-0.0029296875,-0.15527344,0.21875,0.71875,0.21875,0.0,0.0,0.0
1695726938273,-1.0117188,-0.0087890625,-0.13378906,-0.40625,0.71875,-0.125,0.0,0.0,0.0
1695726938308,-1.0039062,-0.0087890625,-0.15527344,0.28125,0.28125,0.28125,0.0,0.0,0.0
1695726938348,-1.0019531,-0.009765625,-0.15722656,-0.03125,0.59375,0.09375,0.0,0.0,0.0
1695726938389,-1.0214844,-0.009765625,-0.14648438,0.53125,0.53125,0.15625,0.0,0.0,0.0
1695726938428,-0.99902344,-0.00390625,-0.14648438,-0.03125,0.34375,0.09375,0.0,0.0,0.0
1695726938473,-1.0048828,-0.0029296875,-0.14941406,0.28125,0.46875,0.28125,-87.0,-28.1875,-173.4375
1695726938528,-1.0029297,-0.0087890625,-0.15820312,0.40625,0.90625,0.03125,0.0,0.0,0.0
1695726938569,-1.0087891,0.0048828125,-0.16308594,-0.21875,0.65625,0.15625,0.0,0.0,0.0
1695726938590,-1.0107422,-0.009765625,-0.15917969,-0.09375,0.15625,0.28125,0.0,0.0,0.0
1695726938628,-1.0058594,-0.0068359375,-0.14453125,-0.28125,0.53125,0.0,0.0,0.0,0.0
1695726938670,-1.0146484,-0.00390625,-0.14648438,-0.09375,0.40625,0.0,0.0,0.0,0.0
1695726938711,-1.0117188,-0.0029296875,-0.16015625,0.34375,0.53125,0.03125,0.0,0.0,0.0
1695726938753,-1.0087891,-9.765625E-4,-0.15429688,-0.21875,0.65625,-0.125,0.0,0.0,0.0
1695726938789,-1.0068359,9.765625E-4,-0.15429688,0.21875,0.21875,0.09375,0.0,0.0,0.0
1695726938828,-1.0039062,-9.765625E-4,-0.15429688,-0.03125,0.90625,-0.0625,0.0,0.0,0.0
1695726938868,-1.0107422,0.0029296875,-0.15234375,-0.34375,0.59375,0.15625,0.0,0.0,0.0
1695726938909,-1.0019531,-0.0087890625,-0.15527344,0.03125,0.46875,0.09375,0.0,0.0,0.0
1695726938948,-1.0107422,-0.0078125,-0.14160156,0.53125,0.59375,0.15625,-85.5,-27.875,-175.125
1695726938989,-1.0097656,-0.001953125,-0.15332031,0.875,0.46875,0.03125,0.0,0.0,0.0
1695726939029,-1.0087891,0.0087890625,-0.16015625,0.625,0.46875,-0.1875,0.0,0.0,0.0
1695726939069,-1.0029297,0.015625,-0.15527344,0.875,0.28125,-0.0625,0.0,0.0,0.0
1695726939108,-1.0048828,-9.765625E-4,-0.16015625,0.09375,0.28125,-0.125,0.0,0.0,0.0
1695726939150,-1.0146484,9.765625E-4,-0.14550781,0.09375,0.65625,-0.3125,0.0,0.0,0.0
1695726939188,-1.0107422,-0.00390625,-0.16015625,0.34375,0.40625,0.03125,0.0,0.0,0.0
1695726939248,-1.0166016,-0.001953125,-0.15527344,-0.34375,0.09375,-0.125,0.0,0.0,0.0
1695726939268,-1.0048828,0.0029296875,-0.16894531,-0.34375,0.09375,-0.25,0.0,0.0,0.0
1695726939328,-0.9980469,0.0029296875,-0.15625,-0.6875,0.09375,-0.1875,0.0,0.0,0.0
1695726939348,-1.0019531,-0.0068359375,-0.17773438,-0.65625,-0.15625,-0.0625,0.0,0.0,0.0
1695726939388,-1.0136719,-0.0068359375,-0.15039062,-0.875,-0.09375,-0.125,0.0,0.0,0.0
1695726939429,-1.0146484,-0.00390625,-0.14941406,-0.8125,-0.15625,-0.0625,0.0,0.0,0.0
1695726939468,-1.0087891,-0.0107421875,-0.14355469,-0.6875,-0.09375,-0.0625,-85.9375,-28.625,-175.875
1695726939508,-1.0068359,-0.009765625,-0.15136719,-0.40625,-0.03125,-0.125,0.0,0.0,0.0
1695726939553,-1.0058594,-0.0126953125,-0.16015625,-0.03125,-0.25,0.34375,0.0,0.0,0.0
1695726939588,-1.0087891,0.0029296875,-0.16113281,-0.28125,-0.03125,-0.125,0.0,0.0,0.0
1695726939648,-1.0058594,-0.01171875,-0.15234375,0.09375,0.21875,0.0,0.0,0.0,0.0
1695726939668,-1.0048828,-0.0048828125,-0.15332031,-0.46875,0.03125,0.21875,0.0,0.0,0.0
1695726939709,-1.0107422,-0.0068359375,-0.15820312,-0.34375,-0.4375,0.46875,0.0,0.0,0.0
1695726939750,-1.0097656,-0.01953125,-0.15039062,0.34375,0.09375,0.09375,0.0,0.0,0.0
1695726939789,-1.0097656,0.0048828125,-0.14941406,0.21875,0.28125,-0.125,0.0,0.0,0.0
1695726939828,-1.0068359,-0.001953125,-0.16113281,0.625,-0.25,0.15625,0.0,0.0,0.0
1695726939868,-1.0068359,9.765625E-4,-0.15820312,0.09375,-0.375,0.09375,0.0,0.0,0.0
1695726939908,-1.0107422,-0.005859375,-0.15917969,-0.15625,-0.1875,-0.125,0.0,0.0,0.0
1695726939951,-1.0107422,-0.0029296875,-0.16796875,-0.09375,-0.3125,0.09375,-85.9375,-27.125,-175.5625
1695726939988,-1.0039062,0.001953125,-0.15625,-0.34375,-0.09375,0.09375,0.0,0.0,0.0
1695726940030,-1.0117188,-0.0078125,-0.13476562,-0.21875,-0.09375,0.03125,0.0,0.0,0.0
1695726940088,-1.0048828,-9.765625E-4,-0.15332031,0.15625,0.09375,0.0,0.0,0.0,0.0
1695726940109,-1.0,9.765625E-4,-0.16210938,-0.28125,-0.15625,0.0,0.0,0.0,0.0
1695726940151,-1.0078125,0.005859375,-0.14648438,-0.15625,-0.03125,-0.0625,0.0,0.0,0.0
1695726940190,-1.0048828,-0.005859375,-0.16210938,-0.59375,0.28125,-0.0625,0.0,0.0,0.0
1695726940230,-1.0048828,-0.0078125,-0.14550781,-0.40625,0.15625,0.09375,0.0,0.0,0.0
1695726940268,-1.0234375,0.0048828125,-0.15136719,-1.0625,-0.25,0.09375,0.0,0.0,0.0
1695726940308,-1.0048828,-0.0078125,-0.15136719,-0.6875,-0.6875,0.0,0.0,0.0,0.0
1695726940350,-1.0009766,0.005859375,-0.15332031,-1.1875,-0.25,0.0,0.0,0.0,0.0
1695726940393,-1.0078125,-9.765625E-4,-0.15039062,-0.53125,0.03125,0.21875,0.0,0.0,0.0
1695726940434,-1.0058594,-0.013671875,-0.16015625,-0.6875,-0.15625,0.15625,0.0,0.0,0.0
1695726940472,-1.0048828,-0.0078125,-0.15039062,-0.21875,-0.03125,0.0,-87.3125,-27.5625,-174.0625
1695726940507,-1.0048828,-0.0048828125,-0.15039062,-0.40625,0.09375,-0.0625,0.0,0.0,0.0
1695726940548,-1.0048828,-0.00390625,-0.15234375,-0.40625,-0.1875,0.03125,0.0,0.0,0.0
1695726940588,-1.0126953,-0.01171875,-0.15332031,-0.03125,-0.1875,0.15625,0.0,0.0,0.0
1695726940629,-1.0058594,-0.0078125,-0.15136719,0.46875,0.46875,-0.0625,0.0,0.0,0.0
1695726940670,-1.0195312,-9.765625E-4,-0.14648438,0.34375,0.46875,-0.125,0.0,0.0,0.0
1695726940707,-1.0166016,-0.0029296875,-0.15039062,0.46875,-0.1875,0.03125,0.0,0.0,0.0
1695726940750,-1.0117188,-0.00390625,-0.15625,0.09375,0.03125,0.0,0.0,0.0,0.0
1695726940792,-1.0097656,-0.001953125,-0.16503906,0.09375,-0.15625,-0.0625,0.0,0.0,0.0
1695726940847,-1.0048828,-9.765625E-4,-0.15136719,0.15625,0.34375,0.09375,0.0,0.0,0.0
1695726940867,-1.0058594,-0.0068359375,-0.14355469,0.59375,0.34375,-0.125,0.0,0.0,0.0
1695726940908,-1.0175781,0.0078125,-0.15917969,0.09375,0.03125,0.0,0.0,0.0,0.0
1695726940950,-1.0009766,-0.00390625,-0.15039062,-0.53125,-0.09375,0.03125,-86.6875,-28.625,-175.125
1695726940991,-1.0068359,-0.0068359375,-0.14355469,-0.28125,0.15625,0.03125,0.0,0.0,0.0
1695726941028,-1.0068359,-0.0068359375,-0.14941406,-0.46875,0.28125,0.03125,0.0,0.0,0.0
1695726941072,-1.0039062,0.001953125,-0.15136719,-0.21875,0.15625,0.09375,0.0,0.0,0.0
1695726941108,-1.0019531,-0.0048828125,-0.15917969,-0.9375,0.34375,-0.125,0.0,0.0,0.0
1695726941151,-1.0097656,-0.0048828125,-0.15332031,-0.40625,0.09375,0.28125,0.0,0.0,0.0
1695726941187,-1.0097656,-0.005859375,-0.16503906,-0.34375,0.21875,0.15625,0.0,0.0,0.0
1695726941229,-1.0068359,9.765625E-4,-0.14453125,-0.09375,0.28125,0.0,0.0,0.0,0.0
1695726941272,-1.0087891,-0.0029296875,-0.13964844,-0.03125,0.03125,-0.1875,0.0,0.0,0.0
1695726941308,-1.0087891,-0.005859375,-0.14550781,0.15625,-0.34375,0.125,0.0,0.0,0.0
1695726941349,-1.0048828,-9.765625E-4,-0.14257812,0.09375,0.09375,0.0625,0.0,0.0,0.0
1695726941392,-1.0068359,-0.005859375,-0.15625,-0.09375,0.03125,0.0625,0.0,0.0,0.0
1695726941428,-1.0068359,-0.0078125,-0.15625,0.875,0.21875,0.25,0.0,0.0,0.0
1695726941468,-1.0068359,-0.00390625,-0.15625,0.625,0.78125,-0.0625,-86.875,-28.75,-175.25
1695726941508,-1.015625,0.0,-0.15722656,0.4375,0.15625,0.0,0.0,0.0,0.0
1695726941550,-1.0019531,-0.0078125,-0.14648438,0.5,0.15625,-0.0625,0.0,0.0,0.0
1695726941607,-1.0048828,-0.001953125,-0.16894531,0.5625,0.28125,-0.125,0.0,0.0,0.0
1695726941627,-1.0097656,0.001953125,-0.14941406,0.5625,0.40625,0.125,0.0,0.0,0.0
1695726941669,-1.0097656,-0.005859375,-0.15332031,0.3125,0.28125,0.125,0.0,0.0,0.0
1695726941710,-1.0039062,-0.0087890625,-0.15625,0.25,0.15625,0.0,0.0,0.0,0.0
1695726941750,-1.0058594,0.0029296875,-0.15917969,-0.15625,-0.03125,0.0,0.0,0.0,0.0
1695726941788,-1.0068359,-0.009765625,-0.15722656,0.15625,0.03125,0.0625,0.0,0.0,0.0
1695726941832,-1.0078125,-0.0068359375,-0.16015625,0.15625,0.28125,0.0,0.0,0.0,0.0
1695726941887,-1.0117188,-0.005859375,-0.14648438,-0.28125,0.15625,-0.125,0.0,0.0,0.0
1695726941908,-1.0097656,-0.001953125,-0.140625,-0.34375,-0.15625,0.1875,0.0,0.0,0.0
1695726941949,-1.0087891,-0.0107421875,-0.15722656,-0.09375,-0.15625,-0.125,-85.1875,-27.5625,-174.5
1695726941989,-1.0087891,-0.001953125,-0.14648438,0.15625,0.09375,-0.0625,0.0,0.0,0.0
1695726942029,-1.0,-0.001953125,-0.16113281,0.375,0.09375,0.125,0.0,0.0,0.0
1695726942068,-1.0039062,-0.005859375,-0.15722656,0.5,0.21875,0.125,0.0,0.0,0.0
1695726942129,-1.0136719,-0.0048828125,-0.14648438,0.4375,-0.09375,-0.125,0.0,0.0,0.0
1695726942149,-1.0058594,0.001953125,-0.16113281,0.09375,-0.21875,-0.125,0.0,0.0,0.0
1695726942189,-1.0107422,-0.0029296875,-0.14941406,0.25,0.09375,-0.0625,0.0,0.0,0.0
1695726942228,-1.0029297,0.001953125,-0.1640625,0.3125,0.15625,0.25,0.0,0.0,0.0
1695726942268,-1.0048828,-9.765625E-4,-0.15039062,0.3125,-0.03125,0.0,0.0,0.0,0.0
1695726942308,-1.0087891,0.0,-0.15820312,0.09375,0.21875,-0.28125,0.0,0.0,0.0
1695726942368,-1.0117188,-0.0048828125,-0.14550781,0.1875,-0.09375,0.125,0.0,0.0,0.0
1695726942388,-1.0058594,-0.0126953125,-0.15820312,0.5625,-0.28125,-0.1875,0.0,0.0,0.0
1695726942428,-1.0039062,-9.765625E-4,-0.15234375,0.625,0.09375,-0.25,0.0,0.0,0.0
1695726942467,-1.0009766,9.765625E-4,-0.16210938,0.1875,0.21875,-0.34375,-85.8125,-28.4375,-174.1875
1695726942508,-1.0087891,-0.0078125,-0.14550781,0.03125,-0.09375,0.0625,0.0,0.0,0.0
1695726942548,-1.0097656,-0.0107421875,-0.16503906,0.5,-0.09375,-0.0625,0.0,0.0,0.0
1695726942588,-1.0009766,-0.00390625,-0.15039062,0.15625,-0.03125,-0.40625,0.0,0.0,0.0
1695726942629,-1.0107422,-0.00390625,-0.1484375,0.25,0.09375,-0.125,0.0,0.0,0.0
1695726942669,-1.0107422,-0.0068359375,-0.15527344,-0.03125,-0.21875,-0.0625,0.0,0.0,0.0
1695726942709,-1.0136719,-0.0078125,-0.13964844,-0.21875,-0.4375,-0.1875,0.0,0.0,0.0
1695726942751,-0.99316406,-0.009765625,-0.15039062,-0.03125,-0.40625,0.0625,0.0,0.0,0.0
1695726942789,-1.0068359,-0.001953125,-0.13867188,0.4375,0.09375,-0.125,0.0,0.0,0.0
1695726942828,-1.0097656,-9.765625E-4,-0.1484375,0.15625,0.03125,-0.125,0.0,0.0,0.0
1695726942870,-1.0058594,-0.009765625,-0.14941406,0.03125,-0.40625,0.25,0.0,0.0,0.0
1695726942908,-1.0029297,-0.0107421875,-0.16503906,0.25,-0.8125,0.0,0.0,0.0,0.0
1695726942954,-1.0058594,-0.0087890625,-0.14160156,0.1875,-0.40625,-0.1875,-85.9375,-28.625,-174.8125
1695726942989,-0.99902344,-0.005859375,-0.15527344,0.3125,-0.28125,0.0,0.0,0.0,0.0
1695726943028,-1.0058594,9.765625E-4,-0.14453125,0.1875,-0.4375,0.0,0.0,0.0,0.0
1695726943072,-1.0058594,-0.01171875,-0.16113281,0.09375,-0.4375,-0.1875,0.0,0.0,0.0
1695726943151,-1.0107422,-0.0029296875,-0.15332031,0.09375,-0.40625,-0.0625,0.0,0.0,0.0
1695726943154,-1.0107422,-0.00390625,-0.16015625,0.15625,-0.5,0.0,0.0,0.0,0.0
1695726943189,-0.99902344,0.0048828125,-0.140625,-0.09375,-0.40625,-0.0625,0.0,0.0,0.0
1695726943230,-1.0078125,0.001953125,-0.13964844,-0.03125,-0.40625,0.0,0.0,0.0,0.0
1695726943281,-1.0136719,-0.01171875,-0.13769531,-0.15625,-0.40625,0.0,0.0,0.0,0.0
1695726943311,-1.0087891,-0.0107421875,-0.15527344,0.375,-0.8125,0.0,0.0,0.0,0.0
1695726943348,-1.0068359,-0.00390625,-0.14746094,0.03125,-0.75,-0.25,0.0,0.0,0.0
1695726943391,-0.9951172,0.001953125,-0.13085938,0.3125,-0.5,-0.125,0.0,0.0,0.0
1695726943429,-0.9970703,-0.001953125,-0.14257812,0.1875,-0.15625,0.125,0.0,0.0,0.0
1695726943468,-1.0097656,0.001953125,-0.14160156,0.09375,-0.09375,0.0625,-85.8125,-28.4375,-174.9375
1695726943507,-1.0195312,-0.0068359375,-0.14355469,0.5,-0.15625,-0.1875,0.0,0.0,0.0
1695726943548,-1.0068359,-0.00390625,-0.15136719,0.15625,0.28125,-0.28125,0.0,0.0,0.0
1695726943588,-1.0029297,-0.00390625,-0.15332031,0.1875,0.21875,0.125,0.0,0.0,0.0
1695726943631,-1.0136719,-0.0068359375,-0.12792969,-0.90625,-0.03125,0.125,0.0,0.0,0.0
1695726943672,-1.0214844,-0.00390625,-0.13378906,-0.53125,-0.34375,0.0,0.0,0.0,0.0
1695726943712,-1.0136719,-0.01171875,-0.15722656,-0.21875,-1.1875,-0.125,0.0,0.0,0.0
1695726943750,-0.99609375,-0.0087890625,-0.14746094,0.09375,-0.6875,-0.25,0.0,0.0,0.0
1695726943791,-1.0039062,-0.009765625,-0.15527344,0.25,-0.6875,-0.0625,0.0,0.0,0.0
1695726943832,-1.0146484,-0.001953125,-0.13769531,0.03125,-0.15625,-0.0625,0.0,0.0,0.0
1695726943888,-1.0117188,-0.013671875,-0.1328125,0.9375,-0.40625,-0.1875,0.0,0.0,0.0
1695726943910,-1.0136719,0.0029296875,-0.14746094,-0.46875,-0.4375,-0.53125,0.0,0.0,0.0
1695726943949,-1.0029297,-0.0048828125,-0.14453125,0.5625,-0.6875,0.0,-86.25,-28.625,-172.6875
1695726943988,-1.0058594,-9.765625E-4,-0.15429688,-0.09375,-0.5625,-0.1875,0.0,0.0,0.0
1695726944029,-1.0068359,0.001953125,-0.14550781,0.625,-0.15625,-0.1875,0.0,0.0,0.0
1695726944068,-1.0136719,-0.0068359375,-0.15722656,0.09375,-0.5625,0.0,0.0,0.0,0.0
1695726944108,-1.0126953,-0.0078125,-0.13867188,0.625,-0.34375,-0.25,0.0,0.0,0.0
1695726944148,-1.0087891,-0.0078125,-0.13964844,0.15625,-0.75,-0.125,0.0,0.0,0.0
1695726944189,-1.0019531,-0.0029296875,-0.14746094,0.09375,-0.8125,-0.1875,0.0,0.0,0.0
1695726944230,-1.0029297,0.001953125,-0.14160156,0.375,-0.40625,0.0,0.0,0.0,0.0
1695726944269,-1.0058594,-0.017578125,-0.14160156,0.1875,0.09375,-0.1875,0.0,0.0,0.0
1695726944308,-1.0195312,-0.009765625,-0.1328125,1.0625,-0.34375,-0.25,0.0,0.0,0.0
1695726944349,-1.0039062,-0.0048828125,-0.14257812,0.09375,-0.21875,-0.40625,0.0,0.0,0.0
1695726944389,-1.0029297,-0.0068359375,-0.13671875,1.78125,-0.09375,-0.125,0.0,0.0,0.0
1695726944433,-1.0166016,-0.00390625,-0.13964844,0.3125,-0.21875,-0.28125,0.0,0.0,0.0
1695726944468,-1.0136719,-0.005859375,-0.13867188,-0.03125,-1.1875,0.0,-87.125,-30.5625,-172.875
1695726944508,-1.015625,-0.0048828125,-0.1484375,1.125,-0.40625,-0.125,0.0,0.0,0.0
1695726944548,-1.0078125,-0.005859375,-0.11621094,1.3125,-0.40625,-0.40625,0.0,0.0,0.0
1695726944588,-1.0117188,9.765625E-4,-0.14355469,-0.28125,-0.5,-0.65625,0.0,0.0,0.0
1695726944647,-1.0019531,-0.0126953125,-0.13183594,1.0625,-0.40625,-0.125,0.0,0.0,0.0
1695726944667,-1.0146484,-0.009765625,-0.12890625,0.3125,0.09375,-0.46875,0.0,0.0,0.0
1695726944709,-1.0117188,-0.0126953125,-0.13671875,-0.15625,-0.5,-0.25,0.0,0.0,0.0
1695726944748,-1.0029297,-0.0078125,-0.13671875,0.625,0.40625,-0.40625,0.0,0.0,0.0
1695726944789,-1.0185547,-0.0078125,-0.12988281,-0.53125,-0.03125,-0.1875,0.0,0.0,0.0
