,timestamp,accel_x,accel_y,accel_z,gyro_x,gyro_y,gyro_z,mag_x,mag_y,mag_z
0,1695814312707,-2.0,0.79785156,-0.7607422,2.5,-132.8125,-175.5,-93.4375,32.4375,-41.0
1,1695814312782,-1.3466797,0.3017578,0.2109375,51.8125,-73.0625,-132.28125,0.0,0.0,0.0
2,1695814312807,-1.2167969,0.0068359375,-0.19628906,-11.625,-103.28125,-161.875,0.0,0.0,0.0
3,1695814312832,-0.75390625,-0.018554688,-0.20214844,-29.875,-57.3125,-137.59375,0.0,0.0,0.0
4,1695814312882,-0.30078125,-0.18847656,-0.16210938,62.0,-49.03125,-87.1875,0.0,0.0,0.0
5,1695814312907,-0.0234375,0.07128906,-0.053710938,99.78125,-26.9375,-34.5625,0.0,0.0,0.0
6,1695814312959,0.14355469,0.2734375,-0.08496094,99.90625,36.59375,24.59375,0.0,0.0,0.0
7,1695814313007,-0.4609375,-0.11328125,0.4765625,35.5,75.78125,102.15625,0.0,0.0,0.0
8,1695814313033,-1.9189453,-1.6113281,0.6621094,240.34375,-1.0625,39.65625,0.0,0.0,0.0
9,1695814313082,-0.8935547,-0.30664062,1.3242188,-27.3125,-35.71875,-107.0625,0.0,0.0,0.0
10,1695814313108,-0.88964844,0.6894531,-0.15136719,-125.125,69.9375,26.21875,0.0,0.0,0.0
11,1695814313158,-1.1601562,0.24414062,0.033203125,-63.4375,86.65625,105.03125,0.0,0.0,0.0
12,1695814313207,-2.0,-1.3769531,-0.6621094,-86.25,133.65625,-61.78125,0.0,0.0,0.0
13,1695814313233,-0.0107421875,1.3828125,-0.7705078,-19.4375,87.875,45.9375,-88.1875,22.25,-32.75
14,1695814313283,-0.9609375,0.5175781,-0.00390625,-34.5625,53.5,140.25,0.0,0.0,0.0
15,1695814313307,-1.1523438,-1.0029297,-0.21386719,-125.4375,89.65625,80.71875,0.0,0.0,0.0
16,1695814313357,-0.70996094,-0.0087890625,-0.17871094,-72.9375,22.375,81.65625,0.0,0.0,0.0
17,1695814313407,-0.5566406,-0.115234375,-0.53515625,-21.9375,66.8125,109.40625,0.0,0.0,0.0
18,1695814313432,-0.8466797,0.15234375,0.12988281,-39.375,95.125,98.3125,0.0,0.0,0.0
19,1695814313482,-1.1074219,-0.31933594,-0.045898438,-23.03125,77.0,73.53125,0.0,0.0,0.0
20,1695814313509,-0.98339844,-0.2861328,0.026367188,-68.125,31.0625,42.96875,0.0,0.0,0.0
21,1695814313558,-1.1347656,-0.6328125,0.0390625,-81.875,-5.5,15.96875,0.0,0.0,0.0
22,1695814313607,-0.93359375,-0.6484375,-0.4716797,-17.96875,8.65625,0.65625,0.0,0.0,0.0
23,1695814313633,-1.2080078,-0.17089844,-0.0234375,36.84375,6.5625,-2.75,0.0,0.0,0.0
24,1695814313682,-1.1748047,-0.26367188,0.22363281,58.53125,-91.875,-42.0,0.0,0.0,0.0
25,1695814313708,-1.4443359,-0.16796875,0.12011719,-10.28125,-173.53125,-112.9375,-94.375,34.0625,-50.1875
26,1695814313759,-1.8554688,1.1533203,-0.6982422,55.34375,-126.71875,-136.3125,0.0,0.0,0.0
27,1695814313808,-1.9023438,-0.07128906,-0.10644531,14.3125,-98.71875,-206.6875,0.0,0.0,0.0
28,1695814313833,-1.4462891,0.0078125,-0.07714844,11.09375,-80.71875,-163.46875,0.0,0.0,0.0
29,1695814313884,-0.6660156,-0.2939453,-0.13574219,-20.9375,-24.4375,-121.53125,0.0,0.0,0.0
30,1695814313910,-0.33691406,-0.20410156,-0.23828125,130.96875,-47.125,-75.28125,0.0,0.0,0.0
31,1695814313958,-0.10058594,0.140625,-0.140625,186.09375,-40.1875,-23.5625,0.0,0.0,0.0
32,1695814314009,0.18164062,0.44726562,-0.16992188,155.8125,18.40625,15.1875,0.0,0.0,0.0
33,1695814314033,-0.119140625,0.5097656,-0.0859375,21.09375,65.84375,65.65625,0.0,0.0,0.0
34,1695814314083,-1.6328125,-0.11621094,0.29101562,161.3125,113.28125,103.3125,0.0,0.0,0.0
35,1695814314108,-2.0,-1.6337891,0.8671875,-0.6875,8.78125,-72.46875,0.0,0.0,0.0
36,1695814314158,-0.45996094,-0.0107421875,0.10449219,-144.25,-3.8125,-60.75,0.0,0.0,0.0
37,1695814314210,-1.5332031,0.3388672,-0.35253906,-191.25,57.0,51.25,0.0,0.0,0.0
38,1695814314233,-1.609375,-1.9257812,-1.4970703,-53.78125,80.96875,-66.3125,-84.0,26.5625,-31.4375
39,1695814314309,-0.54589844,1.6298828,-0.6513672,-65.5,45.03125,10.71875,0.0,0.0,0.0
40,1695814314311,-0.86328125,0.49902344,-0.27246094,-14.25,33.625,172.34375,0.0,0.0,0.0
41,1695814314359,-1.6542969,-1.1396484,-0.47851562,-40.96875,109.3125,92.09375,0.0,0.0,0.0
42,1695814314407,-0.57714844,0.23925781,-0.18652344,-105.375,42.21875,46.75,0.0,0.0,0.0
43,1695814314433,-0.6904297,-0.00390625,-0.37890625,-71.0,78.0,85.25,0.0,0.0,0.0
44,1695814314483,-1.0332031,-0.21289062,-0.032226562,-72.40625,77.875,62.59375,0.0,0.0,0.0
45,1695814314507,-0.8955078,-0.20117188,-0.12402344,-62.21875,63.78125,54.71875,0.0,0.0,0.0
46,1695814314558,-0.9091797,-0.4296875,0.11621094,-71.90625,32.53125,46.8125,0.0,0.0,0.0
47,1695814314609,-1.2070312,-0.48535156,-0.21972656,-51.03125,21.90625,33.5625,0.0,0.0,0.0
48,1695814314634,-1.1259766,-0.5488281,-0.049804688,-22.0,1.4375,26.65625,0.0,0.0,0.0
49,1695814314683,-1.2158203,-0.6113281,-0.06347656,5.0625,-20.78125,-5.875,0.0,0.0,0.0
50,1695814314710,-1.2089844,-0.3515625,-0.13476562,63.8125,-98.21875,-66.96875,-94.8125,37.6875,-56.4375
51,1695814314758,-1.9296875,0.0107421875,0.3017578,-26.5625,-184.65625,-150.53125,0.0,0.0,0.0
52,1695814314808,-1.53125,0.87402344,-0.4580078,62.53125,-124.46875,-134.0,0.0,0.0,0.0
53,1695814314833,-1.5546875,-0.34570312,-0.23046875,-90.34375,-99.5625,-185.6875,0.0,0.0,0.0
54,1695814314882,-0.9785156,-0.03515625,-0.19824219,-44.625,-92.71875,-180.3125,0.0,0.0,0.0
55,1695814314934,-0.62597656,-0.35742188,-0.06347656,10.1875,-10.28125,-120.1875,0.0,0.0,0.0
56,1695814314958,-0.39257812,-0.18554688,-0.22460938,163.3125,-38.21875,-63.0625,0.0,0.0,0.0
57,1695814315009,-0.0068359375,0.16503906,-0.24316406,206.90625,-17.59375,-16.8125,0.0,0.0,0.0
58,1695814315034,0.08496094,0.2998047,-0.22167969,77.8125,46.8125,34.78125,0.0,0.0,0.0
59,1695814315083,-0.7080078,0.18261719,0.6582031,94.96875,61.8125,98.1875,0.0,0.0,0.0
60,1695814315107,-2.0,-1.078125,0.93359375,251.6875,-0.1875,44.84375,0.0,0.0,0.0
61,1695814315160,-0.8564453,-0.49609375,0.86035156,-109.5625,16.03125,-94.9375,0.0,0.0,0.0
62,1695814315235,-0.2529297,0.5546875,-0.9394531,-269.65625,27.8125,27.4375,0.0,0.0,0.0
63,1695814315237,-2.0,0.015625,1.28125,218.84375,-9.65625,128.46875,-90.75,21.8125,-32.1875
64,1695814315283,-0.24121094,0.076171875,1.0234375,-264.71875,36.375,-63.5,0.0,0.0,0.0
65,1695814315308,-0.5341797,1.1386719,-0.50097656,-13.5625,72.8125,107.21875,0.0,0.0,0.0
66,1695814315358,-2.0,-0.25683594,-0.4716797,-49.625,114.3125,131.03125,0.0,0.0,0.0
67,1695814315409,-0.7470703,-0.12207031,0.07128906,-105.4375,62.90625,43.0,0.0,0.0,0.0
68,1695814315433,-0.80078125,0.13378906,-0.2529297,-65.5625,57.71875,87.5625,0.0,0.0,0.0
69,1695814315483,-0.55859375,-0.30273438,-0.2705078,-42.0,81.40625,80.5625,0.0,0.0,0.0
70,1695814315507,-1.0058594,-0.07714844,-0.1484375,-107.5625,88.125,70.34375,0.0,0.0,0.0
71,1695814315558,-1.0947266,-0.3017578,0.3017578,-49.15625,60.90625,71.09375,0.0,0.0,0.0
72,1695814315608,-1.0888672,-0.44628906,-0.10546875,-74.65625,18.28125,48.9375,0.0,0.0,0.0
73,1695814315633,-1.109375,-0.69140625,-0.12890625,-28.09375,-22.0,52.09375,0.0,0.0,0.0
74,1695814315683,-1.0390625,-0.7636719,-0.09082031,29.65625,-10.75,18.90625,0.0,0.0,0.0
75,1695814315711,-1.4453125,-0.43945312,0.31445312,55.03125,-74.28125,-53.46875,0.0,0.0,0.0
76,1695814315758,-1.5546875,-0.12988281,-0.08203125,-5.875,-175.84375,-132.65625,-102.125,39.8125,-51.375
77,1695814315808,-1.8613281,1.1962891,-0.8955078,118.5,-102.90625,-155.21875,0.0,0.0,0.0
78,1695814315833,-2.0,0.3046875,-0.025390625,63.59375,-123.78125,-215.34375,0.0,0.0,0.0
79,1695814315884,-1.3652344,0.25,-0.28027344,8.53125,-94.625,-205.03125,0.0,0.0,0.0
80,1695814315908,-0.7392578,-0.111328125,-0.13476562,-14.40625,-21.6875,-173.21875,0.0,0.0,0.0
81,1695814315959,-0.48535156,-0.13085938,-0.15234375,161.3125,-28.75,-102.5625,0.0,0.0,0.0
82,1695814316033,-0.09277344,0.17382812,-0.2529297,253.21875,-27.0625,-33.53125,0.0,0.0,0.0
83,1695814316058,0.36523438,0.6582031,0.038085938,144.40625,31.46875,44.46875,0.0,0.0,0.0
84,1695814316109,0.045898438,0.2685547,0.1015625,-25.90625,69.0625,99.71875,0.0,0.0,0.0
85,1695814316111,-2.0,-1.1201172,1.4619141,324.625,62.4375,99.40625,0.0,0.0,0.0
86,1695814316159,-1.0205078,-0.9814453,1.0097656,-24.75,15.65625,-111.40625,0.0,0.0,0.0
87,1695814316208,-1.1103516,0.66503906,-0.0546875,-127.40625,64.125,-16.5,0.0,0.0,0.0
88,1695814316233,-2.0,0.9814453,2.0,40.8125,31.59375,66.03125,-92.375,19.0625,-26.75
89,1695814316283,-0.7636719,0.15039062,-0.13671875,-173.28125,45.75,-6.90625,0.0,0.0,0.0
90,1695814316307,-0.7236328,0.8408203,-0.57910156,-90.03125,102.59375,91.78125,0.0,0.0,0.0
91,1695814316358,-2.0,0.15332031,-0.49609375,-39.6875,100.9375,95.5625,0.0,0.0,0.0
92,1695814316409,-0.6484375,-0.064453125,0.09667969,-104.3125,61.375,67.4375,0.0,0.0,0.0
93,1695814316433,-0.5546875,0.3701172,-0.20214844,-29.9375,91.65625,94.03125,0.0,0.0,0.0
94,1695814316484,-0.8359375,-0.037109375,-0.4873047,-118.71875,95.4375,76.53125,0.0,0.0,0.0
95,1695814316508,-0.7402344,0.013671875,0.013671875,-117.375,94.03125,73.90625,0.0,0.0,0.0
96,1695814316585,-1.0839844,-0.140625,-0.115234375,-91.03125,50.28125,87.6875,0.0,0.0,0.0
97,1695814316611,-0.90625,-0.7158203,0.03515625,-84.0625,30.4375,83.65625,0.0,0.0,0.0
98,1695814316633,-1.1230469,-0.7636719,-0.3125,-76.125,14.15625,22.125,0.0,0.0,0.0
99,1695814316683,-1.1015625,-0.3779297,0.009765625,-29.75,10.125,2.90625,0.0,0.0,0.0
100,1695814316707,-1.2089844,-0.5410156,0.20605469,-6.3125,-36.15625,4.25,0.0,0.0,0.0
101,1695814316759,-1.2177734,-0.53808594,-0.087890625,50.9375,-144.90625,-66.78125,-100.9375,38.4375,-56.4375
102,1695814316807,-2.0,0.10644531,0.21582031,-5.75,-161.40625,-162.90625,0.0,0.0,0.0
103,1695814316832,-1.8525391,0.39160156,-0.39453125,71.34375,-103.59375,-194.65625,0.0,0.0,0.0
104,1695814316884,-1.8945312,-0.29296875,0.13671875,-89.90625,-137.90625,-200.40625,0.0,0.0,0.0
105,1695814316933,-1.171875,-0.14648438,-0.3095703,-4.65625,-47.625,-186.90625,0.0,0.0,0.0
106,1695814316957,-0.74121094,-0.0048828125,-0.07421875,31.53125,-36.75,-140.40625,0.0,0.0,0.0
107,1695814317007,-0.2841797,-0.009765625,-0.3251953,214.03125,-40.0,-78.1875,0.0,0.0,0.0
108,1695814317033,0.03125,0.19238281,-0.20019531,280.9375,-25.71875,-15.6875,0.0,0.0,0.0
109,1695814317083,0.42089844,0.6533203,-0.14746094,115.84375,19.6875,34.71875,0.0,0.0,0.0
110,1695814317110,-0.43164062,0.12695312,0.05859375,6.34375,117.96875,97.6875,0.0,0.0,0.0
111,1695814317159,-2.0,-1.5693359,1.6914062,431.625,38.5625,116.625,0.0,0.0,0.0
112,1695814317212,-1.3867188,-0.38085938,1.1367188,-152.53125,-3.75,-140.34375,0.0,0.0,0.0
113,1695814317234,-2.0,0.6660156,0.32910156,-75.28125,-18.15625,59.625,-92.125,22.0625,-27.0625
114,1695814317283,-0.11230469,-0.19921875,-1.3496094,-167.875,26.84375,-25.03125,0.0,0.0,0.0
115,1695814317308,-0.2890625,0.20410156,-0.7578125,-127.9375,145.0,85.5625,0.0,0.0,0.0
116,1695814317359,-2.0,0.25390625,-0.45507812,14.3125,124.9375,91.90625,0.0,0.0,0.0
117,1695814317412,-0.70214844,-0.041015625,0.18847656,-46.46875,49.125,59.375,0.0,0.0,0.0
118,1695814317434,-0.5908203,0.6533203,-0.1015625,-14.53125,74.9375,90.4375,0.0,0.0,0.0
119,1695814317484,-0.74316406,-0.24707031,-0.27246094,-94.125,89.28125,94.46875,0.0,0.0,0.0
120,1695814317509,-0.8925781,-0.18652344,-0.29296875,-88.21875,87.15625,73.53125,0.0,0.0,0.0
121,1695814317560,-0.8623047,-0.033203125,0.05859375,-84.65625,70.46875,72.8125,0.0,0.0,0.0
122,1695814317635,-1.1357422,-0.68847656,0.30664062,-41.65625,54.5625,59.0,0.0,0.0,0.0
123,1695814317638,-1.2099609,-0.5341797,-0.109375,-71.25,16.90625,41.625,0.0,0.0,0.0
124,1695814317684,-1.1289062,-0.61035156,-0.27441406,-18.5,-13.1875,33.4375,0.0,0.0,0.0
125,1695814317709,-1.4042969,-0.78222656,-0.032226562,7.0625,-28.6875,-9.84375,0.0,0.0,0.0
126,1695814317758,-1.3681641,-0.53515625,-0.09472656,113.09375,-107.375,-86.375,-104.875,30.9375,-56.4375
127,1695814317808,-2.0,0.12011719,0.48242188,34.21875,-162.25,-175.96875,0.0,0.0,0.0
128,1695814317832,-1.7851562,1.1464844,-0.5332031,67.0625,-130.75,-160.40625,0.0,0.0,0.0
129,1695814317882,-1.6464844,-0.13964844,-0.07128906,-76.0,-119.46875,-164.125,0.0,0.0,0.0
130,1695814317908,-1.0263672,-0.08984375,-0.25,-19.0,-90.96875,-186.1875,0.0,0.0,0.0
131,1695814317958,-0.54589844,-0.23730469,-0.20117188,39.34375,-56.03125,-116.59375,0.0,0.0,0.0
132,1695814318008,0.009765625,0.055664062,-0.16503906,155.3125,-69.09375,-67.03125,0.0,0.0,0.0
133,1695814318032,0.19433594,0.2578125,-0.14648438,170.75,-22.0625,-9.0,0.0,0.0,0.0
134,1695814318110,0.31933594,0.36914062,-0.10058594,124.375,18.40625,41.65625,0.0,0.0,0.0
135,1695814318112,-0.39160156,0.15722656,0.34570312,61.5625,81.84375,90.5,0.0,0.0,0.0
136,1695814318183,-2.0,-1.3544922,1.5302734,259.4375,80.78125,77.0625,0.0,0.0,0.0
137,1695814318234,-0.79785156,0.08691406,1.1484375,-142.78125,-24.25,-133.375,-90.3125,14.125,-23.9375
138,1695814318235,-1.1103516,0.7158203,0.15039062,-95.90625,55.96875,21.90625,0.0,0.0,0.0
139,1695814318283,-2.0,0.18261719,1.5107422,-3.5625,-43.40625,85.875,0.0,0.0,0.0
140,1695814318308,-0.3779297,0.15332031,-0.6669922,-244.875,71.34375,-27.65625,0.0,0.0,0.0
141,1695814318358,-0.9238281,0.56640625,-0.3828125,-106.40625,143.71875,81.40625,0.0,0.0,0.0
142,1695814318384,-2.0,-0.453125,-0.30859375,-49.625,99.09375,89.34375,0.0,0.0,0.0
143,1695814318433,-0.8261719,0.08886719,-0.107421875,-74.46875,54.90625,64.0,0.0,0.0,0.0
144,1695814318534,-0.71484375,0.20117188,-0.052734375,23.1875,60.03125,102.71875,0.0,0.0,0.0
145,1695814318536,-0.75683594,-0.29785156,-0.24316406,-69.15625,80.6875,88.59375,0.0,0.0,0.0
146,1695814318585,-0.96484375,0.03125,-0.11425781,-70.375,104.96875,81.84375,0.0,0.0,0.0
147,1695814318587,-0.8720703,0.10839844,0.08105469,-69.53125,72.5625,88.125,0.0,0.0,0.0
148,1695814318632,-0.9638672,-0.7167969,-0.13671875,-94.0,32.5625,69.5625,0.0,0.0,0.0
149,1695814318683,-1.1953125,-0.6191406,-0.06738281,-70.4375,13.65625,50.53125,0.0,0.0,0.0
150,1695814318709,-1.2226562,-0.9169922,-0.23339844,-20.9375,-11.1875,16.34375,0.0,0.0,0.0
151,1695814318760,-1.4306641,-0.6347656,0.17089844,1.375,-27.125,-6.125,-103.0625,28.375,-57.8125
152,1695814318783,-1.3623047,-0.4970703,-0.3046875,109.78125,-126.40625,-84.25,0.0,0.0,0.0
153,1695814318858,-2.0,0.5107422,0.2919922,46.96875,-160.78125,-194.78125,0.0,0.0,0.0
154,1695814318906,-1.4365234,0.8076172,-0.16992188,49.0625,-119.8125,-163.96875,0.0,0.0,0.0
155,1695814318909,-1.8017578,-0.26953125,-0.09765625,-20.46875,-132.9375,-183.96875,0.0,0.0,0.0
156,1695814318959,-0.9140625,-0.20605469,-0.31933594,-45.0,-61.125,-178.53125,0.0,0.0,0.0
157,1695814318982,-0.5800781,-0.1953125,-0.17382812,68.84375,-56.78125,-121.59375,0.0,0.0,0.0
158,1695814319032,-0.15722656,0.068359375,-0.15820312,186.5,-61.1875,-72.84375,0.0,0.0,0.0
159,1695814319083,-0.016601562,0.22265625,-0.17578125,192.0,-19.375,-14.1875,0.0,0.0,0.0
160,1695814319110,0.24414062,0.43164062,-0.171875,85.75,36.65625,31.0625,0.0,0.0,0.0
161,1695814319159,-0.6621094,0.28710938,0.26757812,32.625,134.4375,87.09375,0.0,0.0,0.0
162,1695814319210,-2.0,-1.4082031,1.6035156,309.5625,24.53125,68.65625,0.0,0.0,0.0
163,1695814319233,-0.8076172,-0.3466797,1.0703125,-120.3125,-11.5,-134.0625,-90.3125,19.5625,-26.75
164,1695814319282,-0.9326172,0.46777344,-0.3017578,-170.71875,24.875,48.1875,0.0,0.0,0.0
165,1695814319307,-2.0,0.08105469,0.890625,-26.25,50.8125,39.15625,0.0,0.0,0.0
166,1695814319361,-1.0048828,-0.038085938,-0.07519531,-204.78125,32.28125,-24.375,0.0,0.0,0.0
167,1695814319411,-0.5566406,0.9550781,-0.45507812,-29.1875,77.5625,101.0625,0.0,0.0,0.0
168,1695814319435,-1.7285156,-0.23242188,-0.4814453,-41.34375,92.40625,109.375,0.0,0.0,0.0
169,1695814319482,-0.8496094,-0.09667969,-0.13964844,-88.8125,59.96875,80.6875,0.0,0.0,0.0
170,1695814319507,-0.68066406,0.0146484375,-0.24316406,-91.1875,70.34375,73.15625,0.0,0.0,0.0
171,1695814319558,-0.7685547,-0.038085938,-0.38183594,-66.3125,83.0625,64.5625,0.0,0.0,0.0
172,1695814319582,-0.7636719,0.171875,0.026367188,-121.09375,79.15625,81.09375,0.0,0.0,0.0
173,1695814319633,-1.0839844,-0.43945312,-0.030273438,-77.59375,43.3125,89.15625,0.0,0.0,0.0
174,1695814319683,-1.0761719,-0.80371094,-0.17773438,-67.875,20.96875,73.03125,0.0,0.0,0.0
175,1695814319708,-1.1835938,-0.39160156,-0.18554688,-20.34375,5.0625,37.75,0.0,0.0,0.0
176,1695814319760,-1.1728516,-0.5263672,-0.026367188,-20.21875,-20.53125,20.125,-97.5,34.6875,-51.0625
177,1695814319784,-1.2353516,-0.4248047,0.37890625,25.3125,-68.0,-24.75,0.0,0.0,0.0
178,1695814319833,-1.5820312,-0.3076172,-0.46191406,26.21875,-169.8125,-114.625,0.0,0.0,0.0
179,1695814319910,-1.8486328,0.8886719,-0.3359375,11.875,-139.65625,-176.40625,0.0,0.0,0.0
180,1695814319916,-2.0,0.43359375,-0.0859375,150.9375,-91.3125,-256.84375,0.0,0.0,0.0
181,1695814320011,-1.4511719,-0.5371094,-0.21582031,83.96875,-66.65625,-206.375,0.0,0.0,0.0
182,1695814320017,-0.9140625,-0.107421875,-0.19433594,13.53125,-44.8125,-180.25,0.0,0.0,0.0
183,1695814320035,-0.60253906,-0.0068359375,-0.22265625,125.84375,-43.84375,-129.21875,0.0,0.0,0.0
184,1695814320109,-0.23632812,0.12792969,-0.24414062,284.65625,-53.71875,-60.4375,0.0,0.0,0.0
185,1695814320111,0.12890625,0.47265625,-0.19238281,210.1875,-7.53125,-3.0,0.0,0.0,0.0
186,1695814320159,0.390625,1.1669922,-0.16210938,1.625,67.6875,70.125,0.0,0.0,0.0
187,1695814320183,-1.0507812,-0.03125,0.3466797,54.78125,160.1875,122.25,0.0,0.0,0.0
188,1695814320232,-2.0,-2.0,0.8574219,143.0,-28.8125,-27.1875,-86.375,24.0625,-23.75
189,1695814320282,0.041015625,0.0078125,0.24023438,-143.9375,3.03125,-94.0,0.0,0.0,0.0
190,1695814320307,-1.421875,0.5390625,-0.39453125,-176.15625,63.71875,88.0625,0.0,0.0,0.0
191,1695814320384,-1.8837891,-2.0,-2.0,-79.96875,140.0,-127.75,0.0,0.0,0.0
192,1695814320385,-0.22070312,1.2158203,-0.453125,-59.59375,75.3125,-3.8125,0.0,0.0,0.0
193,1695814320432,-1.1611328,0.69433594,-0.0859375,-2.46875,59.5,140.4375,0.0,0.0,0.0
194,1695814320484,-1.1933594,-0.91308594,-0.16015625,-40.53125,117.78125,72.0625,0.0,0.0,0.0
195,1695814320507,-0.6152344,0.07324219,-0.080078125,-115.8125,66.875,82.03125,0.0,0.0,0.0
196,1695814320559,-0.8310547,-0.15429688,-0.39160156,-94.875,59.5,97.03125,0.0,0.0,0.0
197,1695814320583,-0.7753906,-0.095703125,-0.15527344,-107.6875,104.0625,74.09375,0.0,0.0,0.0
198,1695814320634,-1.0078125,-0.23339844,0.13769531,-72.71875,53.03125,86.03125,0.0,0.0,0.0
199,1695814320683,-0.98828125,-0.6220703,-0.20410156,-52.6875,51.8125,63.03125,0.0,0.0,0.0
200,1695814320708,-1.0390625,-0.4609375,0.046875,-41.03125,18.1875,38.0625,0.0,0.0,0.0
201,1695814320758,-1.1328125,-0.43554688,-0.30371094,-59.71875,-6.78125,21.46875,-94.8125,39.5,-56.75
202,1695814320782,-1.1992188,-0.76953125,0.033203125,-11.375,-20.9375,-3.3125,0.0,0.0,0.0
203,1695814320834,-1.2197266,-0.48242188,0.3359375,62.84375,-101.46875,-55.875,0.0,0.0,0.0
204,1695814320883,-1.390625,0.029296875,0.091796875,-6.96875,-170.59375,-142.34375,0.0,0.0,0.0
205,1695814320908,-1.9667969,0.953125,-0.83496094,75.78125,-121.96875,-153.09375,0.0,0.0,0.0
206,1695814320958,-1.8632812,-0.026367188,0.15625,10.40625,-109.75,-202.84375,0.0,0.0,0.0
207,1695814320983,-1.5361328,-0.087890625,-0.16015625,54.0,-28.59375,-201.3125,0.0,0.0,0.0
208,1695814321034,-0.765625,-0.16796875,-0.07910156,36.84375,-25.09375,-149.78125,0.0,0.0,0.0
209,1695814321109,-0.18359375,-0.034179688,-0.119140625,115.59375,-38.03125,-73.875,0.0,0.0,0.0
210,1695814321111,0.057617188,0.11816406,-0.18652344,205.78125,-39.6875,-26.1875,0.0,0.0,0.0
211,1695814321158,0.15820312,0.34765625,-0.140625,180.53125,-8.125,25.4375,0.0,0.0,0.0
212,1695814321182,-0.15429688,0.4560547,0.053710938,41.0,57.84375,85.75,0.0,0.0,0.0
213,1695814321233,-2.0,-0.44433594,1.1123047,182.84375,132.1875,114.65625,-87.0,18.8125,-26.75
214,1695814321282,-1.7314453,-0.78125,0.95996094,-54.09375,39.78125,-121.46875,0.0,0.0,0.0
215,1695814321308,-0.6699219,0.37597656,0.3330078,-94.625,54.96875,-9.0625,0.0,0.0,0.0
216,1695814321358,-1.6953125,-0.12402344,-0.4375,-144.84375,30.0625,97.21875,0.0,0.0,0.0
217,1695814321383,-1.1210938,-0.9902344,-1.6611328,-71.125,102.9375,-105.375,0.0,0.0,0.0
218,1695814321434,-0.3701172,1.3808594,-0.7265625,-84.25,100.25,83.71875,0.0,0.0,0.0
219,1695814321483,-1.1503906,0.38671875,0.017578125,-7.8125,41.5625,135.46875,0.0,0.0,0.0
220,1695814321534,-0.7949219,-0.7792969,-0.08203125,-75.6875,70.25,66.75,0.0,0.0,0.0
221,1695814321585,-0.5185547,0.2939453,-0.15722656,-70.8125,42.28125,69.25,0.0,0.0,0.0
222,1695814321587,-0.9003906,-0.06542969,-0.43945312,-74.28125,71.21875,60.71875,0.0,0.0,0.0
223,1695814321634,-0.8222656,-0.091796875,0.052734375,-93.53125,87.375,68.15625,0.0,0.0,0.0
224,1695814321683,-1.0322266,-0.19238281,-0.14648438,-72.21875,50.03125,83.53125,0.0,0.0,0.0
225,1695814321710,-0.83984375,-0.61328125,-0.03515625,-60.3125,35.4375,70.53125,0.0,0.0,0.0
226,1695814321757,-1.2695312,-0.42871094,-0.18457031,-37.5,10.65625,56.75,-97.0625,32.4375,-54.1875
227,1695814321783,-1.0849609,-0.7685547,-0.08496094,-12.65625,-2.15625,35.1875,0.0,0.0,0.0
228,1695814321833,-1.3085938,-0.5498047,0.059570312,14.8125,-24.4375,-3.96875,0.0,0.0,0.0
229,1695814321911,-1.0917969,-0.1484375,-0.033203125,80.625,-109.03125,-77.78125,0.0,0.0,0.0
230,1695814321913,-2.0,0.24902344,0.009765625,-12.34375,-177.4375,-162.90625,0.0,0.0,0.0
231,1695814321986,-1.5185547,0.56640625,-0.21191406,17.6875,-107.875,-156.8125,0.0,0.0,0.0
232,1695814321988,-1.9404297,-0.076171875,-0.083984375,-48.65625,-145.71875,-207.40625,0.0,0.0,0.0
233,1695814322034,-1.1005859,0.0234375,-0.17285156,7.4375,-71.71875,-183.59375,0.0,0.0,0.0
234,1695814322082,-0.60253906,-0.24511719,-0.040039062,41.4375,-14.71875,-126.46875,0.0,0.0,0.0
235,1695814322132,-0.27929688,-0.04296875,-0.24121094,175.09375,-14.71875,-70.375,0.0,0.0,0.0
236,1695814322158,-0.0048828125,0.15917969,-0.22070312,219.78125,-4.46875,-8.5,0.0,0.0,0.0
237,1695814322208,0.23339844,0.50878906,-0.140625,125.40625,29.9375,46.0625,0.0,0.0,0.0
238,1695814322233,-0.4326172,0.15625,0.13574219,24.28125,82.5,80.71875,-87.125,15.0625,-29.75
239,1695814322283,-2.0,-0.90527344,2.0,324.25,61.9375,122.0625,0.0,0.0,0.0
240,1695814322333,-1.1523438,-0.6923828,1.0478516,-94.25,-13.03125,-167.8125,0.0,0.0,0.0
241,1695814322357,-0.7714844,0.46484375,-0.078125,-98.65625,34.90625,16.28125,0.0,0.0,0.0
242,1695814322383,-2.0,-0.0107421875,-0.034179688,-75.40625,24.75,113.75,0.0,0.0,0.0
243,1695814322432,-0.21289062,-0.27246094,-1.546875,-104.5,17.6875,-75.28125,0.0,0.0,0.0
244,1695814322483,0.15820312,1.3466797,-0.6220703,-58.90625,132.4375,128.21875,0.0,0.0,0.0
245,1695814322561,-2.0,-0.29785156,-0.16210938,-187.21875,104.71875,89.59375,0.0,0.0,0.0
246,1695814322564,-0.6308594,-0.5986328,0.10058594,-108.71875,63.09375,69.125,0.0,0.0,0.0
247,1695814322583,-0.8408203,0.29003906,-0.3203125,-101.46875,48.5,94.46875,0.0,0.0,0.0
248,1695814322662,-0.71972656,-0.12597656,-0.4033203,-40.25,73.78125,89.28125,0.0,0.0,0.0
249,1695814322683,-0.9355469,-0.047851562,0.09765625,-85.34375,85.4375,86.40625,0.0,0.0,0.0
250,1695814322709,-0.9921875,-0.11425781,0.08105469,-77.78125,42.71875,68.90625,0.0,0.0,0.0
251,1695814322761,-1.015625,-0.74121094,-0.21582031,-61.90625,23.59375,56.625,-99.625,22.6875,-57.9375
252,1695814322782,-1.0136719,-0.37109375,-0.23046875,-60.875,-5.5625,19.34375,0.0,0.0,0.0
253,1695814322833,-1.1181641,-0.80566406,-0.23925781,-25.53125,2.78125,-11.71875,0.0,0.0,0.0
254,1695814322882,-1.34375,-0.36035156,0.19726562,18.1875,-16.5,1.03125,0.0,0.0,0.0
255,1695814322907,-1.1035156,-0.4111328,0.0126953125,82.03125,-134.65625,-37.0625,0.0,0.0,0.0
256,1695814322960,-1.9072266,0.016601562,0.13378906,5.0,-178.46875,-155.53125,0.0,0.0,0.0
257,1695814323009,-1.8691406,0.7910156,-0.5175781,25.4375,-85.78125,-184.03125,0.0,0.0,0.0
258,1695814323084,-2.0,0.31152344,0.09863281,-30.46875,-142.53125,-238.34375,0.0,0.0,0.0
259,1695814323089,-1.2431641,-0.057617188,-0.1484375,9.09375,-55.125,-194.28125,0.0,0.0,0.0
260,1695814323107,-0.6689453,-0.22558594,-0.11035156,61.75,-6.25,-145.84375,0.0,0.0,0.0
261,1695814323157,-0.39453125,-0.029296875,-0.24707031,172.78125,-20.34375,-84.5,0.0,0.0,0.0
262,1695814323182,-0.07324219,0.19433594,-0.22363281,275.625,-26.625,-18.21875,0.0,0.0,0.0
263,1695814323232,0.14746094,0.52734375,-0.16992188,137.1875,20.75,35.5625,-86.6875,8.75,-27.5
264,1695814323308,-0.13769531,0.5986328,0.12109375,1.5625,84.9375,85.8125,0.0,0.0,0.0
265,1695814323332,-2.0,-0.8769531,1.7695312,297.96875,97.875,143.84375,0.0,0.0,0.0
266,1695814323360,-1.6513672,-0.703125,1.0839844,-96.09375,48.1875,-117.5625,0.0,0.0,0.0
267,1695814323382,-0.91503906,0.17773438,-0.6542969,-184.03125,6.03125,-1.84375,0.0,0.0,0.0
268,1695814323432,-2.0,1.0791016,1.5166016,-80.9375,70.3125,29.90625,0.0,0.0,0.0
269,1695814323511,-0.39453125,0.2939453,-0.6308594,-167.875,25.8125,-48.59375,0.0,0.0,0.0
270,1695814323514,-0.3408203,0.69921875,-0.48632812,-76.375,97.59375,132.125,0.0,0.0,0.0
271,1695814323558,-2.0,0.041015625,-0.5449219,-111.34375,129.9375,104.90625,0.0,0.0,0.0
272,1695814323584,-0.6484375,-0.27148438,-0.0048828125,-104.5625,49.1875,70.0625,0.0,0.0,0.0
273,1695814323633,-0.6298828,0.09472656,-0.34765625,-76.0,54.0,101.3125,0.0,0.0,0.0
274,1695814323709,-0.82128906,-0.048828125,-0.41015625,-65.1875,90.0625,61.15625,0.0,0.0,0.0
275,1695814323711,-0.8359375,0.07519531,0.037109375,-98.40625,82.25,64.8125,0.0,0.0,0.0
276,1695814323758,-0.8925781,-0.28808594,-0.20605469,-93.34375,57.90625,62.71875,-102.3125,18.625,-58.875
277,1695814323783,-0.9404297,-0.7910156,0.038085938,-32.5,27.4375,70.1875,0.0,0.0,0.0
278,1695814323832,-1.2568359,-0.29492188,-0.3515625,-22.46875,15.25,27.6875,0.0,0.0,0.0
279,1695814323885,-1.140625,-0.38476562,-0.0703125,-26.03125,-4.21875,12.1875,0.0,0.0,0.0
280,1695814323910,-1.3330078,-0.49121094,0.18652344,-4.78125,-32.25,-11.6875,0.0,0.0,0.0
281,1695814323958,-1.1494141,-0.28125,-0.07128906,35.75,-150.46875,-90.40625,0.0,0.0,0.0
282,1695814323983,-1.9042969,-0.27734375,0.2265625,-40.71875,-180.5,-182.21875,0.0,0.0,0.0
283,1695814324033,-1.703125,0.2548828,-0.30371094,84.09375,-75.53125,-210.90625,0.0,0.0,0.0
284,1695814324084,-2.0,-1.0205078,-0.3125,30.1875,-85.9375,-220.59375,0.0,0.0,0.0
285,1695814324108,-0.8691406,0.099609375,-0.13183594,34.78125,-69.71875,-181.03125,0.0,0.0,0.0
286,1695814324183,-0.5126953,-0.041015625,-0.23339844,112.65625,-24.3125,-96.6875,0.0,0.0,0.0
287,1695814324185,-0.22167969,0.025390625,-0.21582031,197.90625,-29.25,-36.40625,0.0,0.0,0.0
288,1695814324233,-0.060546875,0.26757812,-0.1640625,223.875,-32.25,4.9375,-86.6875,5.4375,-28.875
289,1695814324282,0.49316406,0.76464844,0.005859375,8.84375,57.28125,47.53125,0.0,0.0,0.0
290,1695814324307,-0.6220703,0.18652344,0.020507812,41.96875,110.09375,87.75,0.0,0.0,0.0
291,1695814324358,-2.0,-1.3076172,1.9746094,369.0,-14.0625,80.96875,0.0,0.0,0.0
292,1695814324383,-0.7841797,-0.73828125,1.1347656,-130.15625,8.65625,-105.53125,0.0,0.0,0.0
293,1695814324433,-1.6113281,0.32226562,-0.7597656,-148.28125,14.03125,59.8125,0.0,0.0,0.0
294,1695814324483,-1.921875,-0.68652344,-0.12011719,-117.15625,-48.90625,-4.34375,0.0,0.0,0.0
295,1695814324560,0.74902344,1.0244141,-0.59375,-134.15625,-33.40625,-84.625,0.0,0.0,0.0
296,1695814324562,-0.96875,0.78222656,-0.16210938,-12.96875,99.46875,162.46875,0.0,0.0,0.0
297,1695814324583,-2.0,-0.8828125,-0.6845703,-81.5,152.8125,64.25,0.0,0.0,0.0
298,1695814324634,-0.6191406,-0.0029296875,-0.046875,-129.90625,48.09375,64.125,0.0,0.0,0.0
299,1695814324685,-0.82910156,-0.0029296875,-0.13378906,-41.40625,60.09375,107.15625,0.0,0.0,0.0
300,1695814324709,-0.8017578,-0.22460938,-0.296875,-101.75,76.65625,76.59375,0.0,0.0,0.0
301,1695814324760,-0.7871094,0.09765625,-0.1328125,-82.0,84.09375,78.125,-99.4375,14.3125,-53.0
302,1695814324782,-0.9082031,-0.3017578,0.083984375,-91.4375,52.15625,96.78125,0.0,0.0,0.0
303,1695814324833,-0.9296875,-0.73535156,-0.20019531,-37.96875,21.53125,77.125,0.0,0.0,0.0
304,1695814324882,-1.0976562,-0.3984375,-0.28710938,-52.8125,9.75,31.90625,0.0,0.0,0.0
305,1695814324934,-1.1123047,-0.40722656,-0.27539062,-38.34375,-5.25,4.6875,0.0,0.0,0.0
306,1695814324958,-1.1591797,-0.61621094,0.119140625,9.3125,-18.5625,-2.6875,0.0,0.0,0.0
307,1695814324983,-1.2978516,-0.67578125,-0.24316406,96.90625,-94.125,-65.3125,0.0,0.0,0.0
308,1695814325034,-1.765625,0.12109375,0.16113281,51.4375,-158.28125,-146.0,0.0,0.0,0.0
309,1695814325086,-1.7734375,0.9716797,-0.47558594,12.0,-128.75,-148.75,0.0,0.0,0.0
310,1695814325113,-1.8066406,0.3408203,0.01171875,-72.9375,-94.5,-222.90625,0.0,0.0,0.0
311,1695814325162,-1.1806641,-0.060546875,-0.107421875,7.0625,-53.40625,-184.21875,0.0,0.0,0.0
312,1695814325183,-0.66796875,-0.40429688,0.052734375,35.6875,-12.59375,-147.15625,0.0,0.0,0.0
313,1695814325233,-0.33398438,-0.06933594,-0.21875,151.59375,-29.0,-80.59375,-84.625,-0.5625,-36.6875
314,1695814325282,-0.2109375,0.078125,-0.1796875,197.6875,-33.40625,-21.6875,0.0,0.0,0.0
315,1695814325308,0.026367188,0.4375,-0.0859375,132.8125,17.3125,26.96875,0.0,0.0,0.0
316,1695814325358,-0.11035156,0.5576172,0.01171875,6.6875,59.875,77.0,0.0,0.0,0.0
317,1695814325383,-1.4951172,-0.05859375,0.63964844,102.59375,138.96875,158.625,0.0,0.0,0.0
318,1695814325458,-2.0,-1.453125,0.6171875,149.875,-3.125,-27.90625,0.0,0.0,0.0
319,1695814325483,-0.7783203,-0.037109375,0.7001953,-154.25,10.84375,-75.8125,0.0,0.0,0.0
320,1695814325508,-1.1660156,-0.10058594,-1.2138672,-165.0625,23.71875,60.21875,0.0,0.0,0.0
321,1695814325558,-2.0,-1.5302734,0.38671875,-58.4375,111.6875,-105.0625,0.0,0.0,0.0
322,1695814325584,-0.4970703,1.5488281,-1.1210938,-50.0625,56.9375,45.40625,0.0,0.0,0.0
323,1695814325633,-0.9345703,0.56640625,0.04296875,-18.03125,33.90625,154.15625,0.0,0.0,0.0
324,1695814325710,-1.4492188,-1.328125,-0.15429688,-68.25,90.9375,67.0625,0.0,0.0,0.0
325,1695814325714,-0.6455078,0.20898438,-0.1015625,-86.3125,25.8125,66.40625,0.0,0.0,0.0
326,1695814325763,-0.6845703,-0.09863281,-0.2421875,-59.15625,55.09375,82.5625,-92.125,14.4375,-37.875
327,1695814325783,-0.9355469,-0.1875,-0.18261719,-91.3125,80.78125,58.75,0.0,0.0,0.0
328,1695814325833,-0.75097656,0.068359375,-0.09375,-91.6875,78.65625,71.34375,0.0,0.0,0.0
329,1695814325909,-0.8183594,-0.3154297,0.030273438,-60.125,50.40625,90.5625,0.0,0.0,0.0
330,1695814325911,-1.1347656,-0.46679688,-0.0625,-79.1875,-10.9375,89.09375,0.0,0.0,0.0
331,1695814325959,-1.1875,-0.72558594,-0.25683594,-29.8125,-5.25,43.25,0.0,0.0,0.0
332,1695814325984,-1.1025391,-0.67578125,-0.0146484375,6.875,-12.28125,15.1875,0.0,0.0,0.0
333,1695814326034,-1.2382812,-0.47753906,0.17871094,54.6875,-79.90625,-38.65625,0.0,0.0,0.0
334,1695814326111,-1.4785156,-0.32714844,-0.13671875,64.4375,-147.15625,-118.1875,0.0,0.0,0.0
335,1695814326114,-2.0,1.359375,-0.3876953,33.1875,-116.21875,-161.21875,0.0,0.0,0.0
336,1695814326159,-1.6943359,0.57714844,0.036132812,93.0625,-107.875,-218.71875,0.0,0.0,0.0
337,1695814326213,-1.4042969,-0.609375,-0.20507812,-2.625,-35.0,-185.4375,0.0,0.0,0.0
338,1695814326232,-0.7988281,-0.32421875,-0.19921875,-20.9375,-30.40625,-159.25,-84.125,8.0,-29.9375
339,1695814326282,-0.48339844,0.0,-0.13769531,101.96875,-41.6875,-115.3125,0.0,0.0,0.0
340,1695814326308,-0.20703125,0.16015625,-0.10839844,196.15625,-34.625,-57.5625,0.0,0.0,0.0
341,1695814326357,0.015625,0.30078125,-0.17382812,156.25,8.59375,8.28125,0.0,0.0,0.0
342,1695814326383,0.044921875,0.45214844,-0.13769531,24.53125,74.21875,62.65625,0.0,0.0,0.0
343,1695814326459,-1.2734375,-0.16699219,0.79003906,146.09375,132.84375,122.53125,0.0,0.0,0.0
344,1695814326483,-2.0,-1.3808594,0.96972656,147.03125,-11.3125,-50.3125,0.0,0.0,0.0
345,1695814326510,-0.46289062,-0.029296875,0.52734375,-84.375,5.96875,-83.8125,0.0,0.0,0.0
346,1695814326587,-0.8935547,0.5371094,-1.5625,-214.375,71.75,49.71875,0.0,0.0,0.0
347,1695814326591,-2.0,-2.0,-1.0791016,37.34375,67.96875,-55.6875,0.0,0.0,0.0
348,1695814326636,-0.29589844,1.7304688,-0.7939453,-69.03125,19.625,2.71875,0.0,0.0,0.0
349,1695814326713,-0.8046875,0.6386719,-0.11425781,-31.625,35.5,158.375,0.0,0.0,0.0
350,1695814326716,-1.8574219,-1.5673828,-0.39453125,-51.90625,132.625,74.09375,0.0,0.0,0.0
351,1695814326758,-0.6142578,0.08984375,-0.08984375,-134.15625,43.0625,69.125,-89.125,17.3125,-34.125
352,1695814326783,-0.5878906,0.08105469,-0.4609375,-82.46875,74.09375,111.5625,0.0,0.0,0.0
353,1695814326833,-0.890625,-0.08886719,-0.06933594,-75.9375,96.96875,94.03125,0.0,0.0,0.0
354,1695814326859,-0.95703125,-0.2548828,-0.07714844,-58.3125,58.03125,81.15625,0.0,0.0,0.0
355,1695814326907,-0.98828125,-0.74609375,0.005859375,-52.375,43.5,54.1875,0.0,0.0,0.0
356,1695814326958,-1.1845703,-0.45996094,-0.0390625,-60.4375,1.8125,17.0625,0.0,0.0,0.0
357,1695814326982,-0.9902344,-0.7626953,-0.38476562,-10.8125,-3.75,14.875,0.0,0.0,0.0
358,1695814327032,-1.1582031,-0.4013672,0.115234375,12.5,0.84375,-6.71875,0.0,0.0,0.0
359,1695814327058,-1.3798828,-0.25,0.32910156,65.71875,-67.65625,-36.09375,0.0,0.0,0.0
360,1695814327108,-1.1435547,-0.2626953,-0.041992188,11.53125,-164.25,-106.15625,0.0,0.0,0.0
361,1695814327161,-1.9238281,1.0175781,-0.8154297,112.53125,-143.3125,-145.46875,0.0,0.0,0.0
362,1695814327183,-1.9941406,0.3046875,-0.08886719,88.25,-130.4375,-205.46875,0.0,0.0,0.0
363,1695814327233,-1.6123047,0.0087890625,-0.15722656,17.625,-97.90625,-180.8125,-82.625,15.9375,-30.9375
364,1695814327283,-0.73339844,-0.23535156,-0.13769531,-9.125,-39.125,-146.1875,0.0,0.0,0.0
365,1695814327308,-0.34960938,-0.13769531,-0.30078125,150.0625,-58.59375,-76.6875,0.0,0.0,0.0
366,1695814327359,-0.013671875,0.2578125,-0.09472656,214.9375,-53.3125,-27.40625,0.0,0.0,0.0
367,1695814327382,0.1953125,0.46289062,-0.15234375,152.875,3.59375,21.53125,0.0,0.0,0.0
368,1695814327433,-0.13867188,0.375,-0.001953125,-35.59375,78.59375,75.90625,0.0,0.0,0.0
369,1695814327460,-2.0,-0.54296875,1.7929688,229.15625,103.625,108.625,0.0,0.0,0.0
370,1695814327507,-1.3417969,-1.1533203,0.87109375,-32.5625,47.28125,-125.6875,0.0,0.0,0.0
371,1695814327558,-0.49804688,0.26367188,0.46875,-54.53125,4.8125,-29.875,0.0,0.0,0.0
372,1695814327582,-1.328125,0.765625,0.11816406,-59.09375,36.65625,55.65625,0.0,0.0,0.0
373,1695814327634,-1.9873047,-0.92089844,0.026367188,-153.8125,34.96875,-1.78125,0.0,0.0,0.0
374,1695814327658,-0.7402344,0.75683594,-0.7871094,-143.9375,52.71875,19.625,0.0,0.0,0.0
375,1695814327708,-0.60058594,0.39746094,-0.18945312,28.96875,49.375,125.71875,0.0,0.0,0.0
376,1695814327758,-1.984375,-0.88964844,-0.5390625,-67.65625,108.03125,75.1875,-87.625,17.125,-35.625
377,1695814327782,-0.625,0.13769531,-0.015625,-122.5625,44.0,63.65625,0.0,0.0,0.0
378,1695814327833,-0.9296875,-0.001953125,-0.2421875,-78.25,65.15625,88.125,0.0,0.0,0.0
379,1695814327859,-0.7519531,-0.026367188,-0.328125,-95.84375,78.0,60.90625,0.0,0.0,0.0
380,1695814327907,-0.875,-0.055664062,-0.107421875,-99.375,71.09375,87.21875,0.0,0.0,0.0
381,1695814327984,-0.77734375,-0.4951172,0.0390625,-80.59375,62.125,81.78125,0.0,0.0,0.0
382,1695814327986,-1.21875,-0.53808594,-0.15332031,-31.9375,31.84375,71.09375,0.0,0.0,0.0
383,1695814328032,-1.3320312,-0.4423828,-0.080078125,-32.5625,-2.28125,43.6875,0.0,0.0,0.0
384,1695814328058,-1.1123047,-0.82421875,-0.01953125,-3.25,-13.5625,13.84375,0.0,0.0,0.0
385,1695814328110,-1.1806641,-0.5214844,0.40722656,56.0625,-68.375,-43.15625,0.0,0.0,0.0
386,1695814328159,-1.4472656,-0.017578125,-0.26464844,8.53125,-170.90625,-122.03125,0.0,0.0,0.0
387,1695814328183,-1.6845703,1.2255859,-0.9248047,85.3125,-109.375,-159.375,0.0,0.0,0.0
388,1695814328234,-1.9892578,0.21289062,-0.0703125,110.59375,-96.28125,-214.5,-89.6875,17.125,-38.75
389,1695814328263,-1.5712891,0.078125,-0.09082031,60.28125,-111.90625,-185.25,0.0,0.0,0.0
390,1695814328309,-0.62890625,0.013671875,-0.08105469,-15.8125,-41.6875,-149.5625,0.0,0.0,0.0
391,1695814328359,-0.31054688,-0.18066406,-0.24804688,105.34375,-39.625,-94.5,0.0,0.0,0.0
392,1695814328383,-0.059570312,0.059570312,-0.20410156,209.59375,-35.53125,-31.15625,0.0,0.0,0.0
393,1695814328433,-0.017578125,0.46679688,-0.12402344,173.5,12.5,15.1875,0.0,0.0,0.0
394,1695814328458,-0.23339844,0.6308594,-0.07910156,-24.78125,61.875,76.40625,0.0,0.0,0.0
395,1695814328507,-1.4746094,-0.328125,1.03125,153.65625,120.34375,115.84375,0.0,0.0,0.0
396,1695814328559,-1.8535156,-1.1621094,0.8671875,-73.0,78.78125,-126.90625,0.0,0.0,0.0
397,1695814328583,-0.4794922,0.072265625,0.12792969,-102.1875,12.5625,-34.125,0.0,0.0,0.0
398,1695814328634,-1.9589844,0.44726562,-0.08300781,-198.125,-3.90625,82.03125,0.0,0.0,0.0
399,1695814328660,-0.62402344,-1.3085938,-1.3027344,-118.84375,84.625,-91.25,0.0,0.0,0.0
400,1695814328709,-0.4111328,1.3144531,-0.8496094,-148.6875,113.75,85.625,0.0,0.0,0.0
401,1695814328759,-1.2929688,0.2890625,0.025390625,-26.875,57.65625,165.625,-81.625,20.875,-34.4375
402,1695814328783,-1.0927734,-1.21875,-0.16210938,0.84375,64.6875,80.0625,0.0,0.0,0.0
403,1695814328833,-0.42089844,0.4658203,-0.1484375,-49.8125,48.9375,68.78125,0.0,0.0,0.0
404,1695814328860,-0.76953125,0.13476562,-0.4140625,-79.59375,86.21875,82.25,0.0,0.0,0.0
405,1695814328909,-0.9316406,-0.021484375,0.15429688,-93.46875,84.9375,75.78125,0.0,0.0,0.0
406,1695814328958,-0.7861328,-0.20898438,-0.2421875,-94.5,54.0625,79.75,0.0,0.0,0.0
407,1695814328982,-0.9667969,-0.7470703,0.11035156,-46.03125,21.03125,69.0,0.0,0.0,0.0
408,1695814329033,-1.1347656,-0.47265625,-0.26367188,-46.21875,20.96875,30.6875,0.0,0.0,0.0
409,1695814329058,-1.1835938,-0.2578125,-0.23828125,-38.90625,-1.34375,38.3125,0.0,0.0,0.0
410,1695814329109,-1.3017578,-0.70996094,0.08984375,-4.78125,-16.5,10.59375,0.0,0.0,0.0
411,1695814329159,-1.2978516,-0.41601562,0.040039062,70.1875,-104.9375,-63.6875,0.0,0.0,0.0
412,1695814329184,-1.8261719,-0.068359375,0.265625,17.6875,-165.46875,-151.3125,0.0,0.0,0.0
413,1695814329232,-1.9121094,1.1210938,-0.66308594,26.09375,-116.28125,-163.21875,-85.375,23.0,-39.375
414,1695814329258,-1.875,0.07910156,0.09863281,21.34375,-127.09375,-204.3125,0.0,0.0,0.0
415,1695814329309,-1.2050781,0.049804688,-0.24902344,-3.625,-95.53125,-183.71875,0.0,0.0,0.0
416,1695814329358,-0.62890625,-0.23535156,-0.13574219,-20.21875,-44.8125,-142.15625,0.0,0.0,0.0
417,1695814329384,-0.21777344,-0.16210938,-0.24316406,166.625,-69.21875,-86.5625,0.0,0.0,0.0
418,1695814329433,-0.0625,0.14941406,-0.18554688,222.34375,-47.3125,-27.34375,0.0,0.0,0.0
419,1695814329458,0.14453125,0.49609375,-0.18554688,137.0,-5.9375,11.28125,0.0,0.0,0.0
420,1695814329509,-0.3466797,0.39257812,0.013671875,-15.15625,88.4375,83.65625,0.0,0.0,0.0
421,1695814329559,-2.0,-0.61816406,1.7460938,204.09375,93.125,106.0,0.0,0.0,0.0
422,1695814329583,-1.7158203,-0.8535156,1.1210938,-88.21875,59.5,-114.53125,0.0,0.0,0.0
423,1695814329634,-1.5849609,-0.16992188,0.1640625,-59.21875,-1.34375,0.96875,0.0,0.0,0.0
424,1695814329658,-1.234375,0.09082031,-0.48828125,-113.125,-7.40625,-15.8125,0.0,0.0,0.0
425,1695814329710,-0.041015625,0.33691406,-0.77441406,-172.3125,10.3125,3.90625,0.0,0.0,0.0
426,1695814329760,-0.7783203,0.6074219,-0.5566406,-36.75,97.46875,148.0625,-80.875,17.0,-28.875
427,1695814329783,-1.875,-0.7832031,-0.30664062,-26.625,111.75,96.59375,0.0,0.0,0.0
428,1695814329833,-0.56640625,0.2529297,-0.041992188,-99.9375,46.96875,77.375,0.0,0.0,0.0
429,1695814329859,-0.7734375,0.022460938,-0.13476562,-29.96875,47.21875,123.65625,0.0,0.0,0.0
430,1695814329911,-0.8652344,-0.23242188,-0.3095703,-68.9375,85.1875,75.25,0.0,0.0,0.0
431,1695814329959,-0.8330078,0.103515625,0.061523438,-77.40625,90.0625,72.125,0.0,0.0,0.0
432,1695814330008,-0.92871094,-0.29785156,-0.046875,-74.71875,53.5625,77.8125,0.0,0.0,0.0
433,1695814330059,-0.9863281,-0.66796875,-0.0234375,-56.84375,20.5,54.375,0.0,0.0,0.0
434,1695814330060,-1.1425781,-0.6191406,-0.12207031,-44.15625,4.0,24.40625,0.0,0.0,0.0
435,1695814330110,-1.1689453,-0.4482422,-0.14355469,16.90625,-3.125,22.25,0.0,0.0,0.0
436,1695814330159,-1.2402344,-0.60546875,0.18652344,12.6875,-35.65625,-4.71875,0.0,0.0,0.0
437,1695814330184,-1.1435547,-0.36523438,-0.29785156,70.0625,-118.5,-88.40625,0.0,0.0,0.0
438,1695814330260,-2.0,0.46972656,-0.07714844,-7.78125,-151.0625,-144.90625,-87.625,21.1875,-39.375
439,1695814330264,-1.6123047,0.41601562,0.02734375,70.71875,-89.375,-169.9375,0.0,0.0,0.0
440,1695814330308,-1.8583984,0.22363281,0.0703125,-84.375,-131.0625,-211.6875,0.0,0.0,0.0
441,1695814330359,-0.859375,-0.15039062,-0.19824219,-13.5,-53.0625,-182.21875,0.0,0.0,0.0
442,1695814330383,-0.4951172,-0.19335938,-0.12597656,27.9375,-29.125,-131.96875,0.0,0.0,0.0
443,1695814330435,-0.24804688,0.03125,-0.18945312,173.75,-26.375,-73.1875,0.0,0.0,0.0
444,1695814330458,-0.028320312,0.23144531,-0.18554688,231.25,-20.09375,-16.8125,0.0,0.0,0.0
445,1695814330508,0.23925781,0.578125,-0.13378906,89.53125,35.625,35.6875,0.0,0.0,0.0
446,1695814330559,-0.4814453,0.11328125,0.26367188,16.40625,98.6875,89.71875,0.0,0.0,0.0
447,1695814330586,-2.0,-1.1210938,1.9765625,335.125,13.96875,105.28125,0.0,0.0,0.0
448,1695814330632,-1.1748047,-0.7089844,1.015625,-77.59375,-12.71875,-132.46875,0.0,0.0,0.0
449,1695814330657,-0.95410156,0.33496094,-0.17675781,-132.71875,37.71875,31.65625,0.0,0.0,0.0
450,1695814330708,-2.0,0.60253906,0.81640625,-106.65625,-2.53125,77.9375,0.0,0.0,0.0
451,1695814330759,0.024414062,-0.083984375,-0.0546875,-177.8125,27.03125,-80.46875,-81.75,13.8125,-37.25
452,1695814330783,-0.30566406,1.2998047,-0.61035156,-40.0,118.40625,136.53125,0.0,0.0,0.0
453,1695814330833,-2.0,0.06542969,-0.31835938,-146.0625,107.09375,122.0625,0.0,0.0,0.0
454,1695814330858,-0.66308594,-0.67578125,0.051757812,-85.28125,38.9375,83.125,0.0,0.0,0.0
455,1695814330933,-0.5859375,0.0859375,-0.31933594,-45.78125,43.0625,121.375,0.0,0.0,0.0
456,1695814330958,-0.8769531,-0.25683594,-0.36132812,-69.84375,82.125,82.8125,0.0,0.0,0.0
457,1695814330983,-0.89941406,0.0048828125,0.076171875,-62.75,90.0,78.125,0.0,0.0,0.0
458,1695814331035,-0.984375,-0.2607422,-0.1171875,-63.6875,50.40625,73.96875,0.0,0.0,0.0
459,1695814331061,-0.92089844,-0.6464844,-0.0068359375,-51.28125,21.28125,51.0,0.0,0.0,0.0
460,1695814331107,-1.0625,-0.46972656,-0.17285156,-44.4375,2.59375,23.90625,0.0,0.0,0.0
461,1695814331158,-1.1445312,-0.70996094,-0.076171875,12.5625,-0.5625,9.125,0.0,0.0,0.0
462,1695814331182,-1.4277344,-0.5234375,0.14648438,37.8125,-47.0,-20.71875,0.0,0.0,0.0
463,1695814331283,-1.3798828,-0.17773438,-0.24414062,91.78125,-141.75,-97.96875,-89.5625,29.3125,-51.375
464,1695814331285,-2.0,1.0068359,-0.25195312,-4.34375,-196.5625,-156.875,0.0,0.0,0.0
465,1695814331334,-1.5615234,0.16210938,0.03515625,66.625,-102.375,-152.0,0.0,0.0,0.0
466,1695814331360,-1.8173828,-0.21972656,-0.21679688,-138.875,-128.75,-195.3125,0.0,0.0,0.0
467,1695814331384,-0.875,-0.078125,-0.19042969,-9.84375,-40.125,-171.15625,0.0,0.0,0.0
468,1695814331434,-0.421875,-0.15625,-0.103515625,78.53125,-40.40625,-110.25,0.0,0.0,0.0
469,1695814331459,-0.06933594,0.10546875,-0.1484375,165.625,-46.15625,-49.40625,0.0,0.0,0.0
470,1695814331509,0.03125,0.22265625,-0.125,178.34375,-0.875,2.1875,0.0,0.0,0.0
471,1695814331559,0.18457031,0.34277344,-0.10449219,72.3125,42.28125,57.84375,0.0,0.0,0.0
472,1695814331585,-0.78027344,0.23632812,0.5292969,151.15625,88.375,118.09375,0.0,0.0,0.0
473,1695814331634,-2.0,-0.96484375,1.2919922,181.375,25.0,1.3125,0.0,0.0,0.0
474,1695814331659,-0.7001953,-0.07519531,1.0449219,-107.625,-18.21875,-98.71875,0.0,0.0,0.0
475,1695814331709,-0.609375,0.22851562,-0.9394531,-218.09375,26.78125,32.34375,0.0,0.0,0.0
476,1695814331783,-2.0,0.42285156,1.8154297,-16.6875,49.78125,76.46875,-80.875,18.8125,-33.0625
477,1695814331808,0.07519531,0.55859375,-0.14941406,-210.84375,-3.96875,-47.625,0.0,0.0,0.0
478,1695814331832,-0.7207031,0.84765625,-0.42382812,-28.65625,101.1875,120.46875,0.0,0.0,0.0
479,1695814331883,-2.0,-0.49023438,-0.6435547,-92.46875,138.71875,107.84375,0.0,0.0,0.0
480,1695814331934,-0.69921875,-0.15136719,-0.07519531,-73.75,33.375,48.875,0.0,0.0,0.0
481,1695814331958,-0.6484375,0.22753906,-0.22753906,-0.5,57.78125,121.5625,0.0,0.0,0.0
482,1695814331984,-0.7578125,-0.025390625,-0.41796875,-71.125,91.65625,87.3125,0.0,0.0,0.0
483,1695814332033,-1.0722656,0.032226562,0.061523438,-63.375,90.4375,87.9375,0.0,0.0,0.0
484,1695814332059,-0.6923828,-0.12988281,0.05859375,-79.25,68.03125,80.1875,0.0,0.0,0.0
485,1695814332107,-1.2734375,-0.5605469,-0.15625,-69.15625,22.3125,67.5,0.0,0.0,0.0
486,1695814332185,-1.1923828,-0.80078125,-0.12597656,-58.84375,-6.25,25.4375,0.0,0.0,0.0
487,1695814332187,-1.1767578,-0.6171875,-0.1015625,-0.8125,-0.375,7.25,0.0,0.0,0.0
488,1695814332232,-1.3056641,-0.609375,0.13085938,45.625,-66.1875,-32.0,-87.75,33.625,-51.375
489,1695814332258,-1.5869141,-0.24707031,-0.2998047,79.625,-136.78125,-120.75,0.0,0.0,0.0
490,1695814332308,-1.9384766,1.3291016,-0.49414062,31.65625,-146.25,-164.0625,0.0,0.0,0.0
491,1695814332384,-1.7900391,0.4013672,0.018554688,97.28125,-129.09375,-197.40625,0.0,0.0,0.0
492,1695814332386,-1.4824219,-0.35546875,-0.28320312,-16.8125,-59.03125,-196.375,0.0,0.0,0.0
493,1695814332433,-0.91503906,-0.15527344,-0.18652344,-4.84375,-29.0625,-158.40625,0.0,0.0,0.0
494,1695814332458,-0.453125,-0.017578125,-0.13867188,100.21875,-31.75,-112.25,0.0,0.0,0.0
495,1695814332509,-0.037109375,0.11230469,-0.095703125,198.03125,-45.96875,-51.78125,0.0,0.0,0.0
496,1695814332560,0.12988281,0.2783203,-0.16894531,172.21875,-3.75,10.375,0.0,0.0,0.0
497,1695814332583,0.10449219,0.546875,-0.08984375,9.9375,58.59375,66.875,0.0,0.0,0.0
498,1695814332638,-1.15625,0.07714844,0.5048828,111.0,96.1875,120.28125,0.0,0.0,0.0
499,1695814332657,-2.0,-1.3759766,0.8671875,215.1875,-12.46875,5.40625,0.0,0.0,0.0
500,1695814332708,-0.4736328,-0.043945312,0.77734375,-124.90625,1.5625,-70.625,0.0,0.0,0.0
501,1695814332759,-1.7646484,0.37597656,-0.82128906,-228.90625,64.625,95.5,-84.3125,18.625,-34.5625
502,1695814332782,-2.0,-1.8769531,-0.6640625,-52.5,78.15625,-106.9375,0.0,0.0,0.0
503,1695814332833,0.6230469,1.4736328,-1.203125,-103.53125,75.25,-24.4375,0.0,0.0,0.0
504,1695814332859,-1.0195312,0.5332031,-0.21679688,30.75,84.40625,176.6875,0.0,0.0,0.0
505,1695814332908,-1.3857422,-1.234375,-0.052734375,-7.03125,56.5625,76.65625,0.0,0.0,0.0
506,1695814332985,-0.35058594,0.37890625,-0.060546875,-64.40625,40.875,50.28125,0.0,0.0,0.0
507,1695814332987,-0.7919922,-0.16113281,-0.21582031,-13.9375,62.3125,143.78125,0.0,0.0,0.0
508,1695814333034,-0.9111328,-0.013671875,-0.24804688,-88.625,96.90625,84.6875,0.0,0.0,0.0
509,1695814333059,-0.96191406,0.10058594,-0.09667969,-70.4375,80.625,96.90625,0.0,0.0,0.0
510,1695814333110,-0.85839844,-0.69628906,0.14941406,-97.71875,38.5,68.53125,0.0,0.0,0.0
511,1695814333159,-1.0751953,-0.8027344,-0.27734375,-50.25,8.53125,43.4375,0.0,0.0,0.0
512,1695814333184,-1.1884766,-0.5029297,-0.16992188,-4.65625,0.0,1.5625,0.0,0.0,0.0
513,1695814333234,-1.5019531,-0.4716797,0.15625,1.09375,-18.5625,-10.03125,-93.0,34.0625,-56.75
514,1695814333260,-1.3173828,-0.546875,0.3125,55.78125,-107.75,-56.90625,0.0,0.0,0.0
515,1695814333308,-1.2832031,0.09375,0.13867188,-21.5,-206.0,-128.75,0.0,0.0,0.0
516,1695814333359,-1.7109375,0.8798828,-1.0039062,76.15625,-100.78125,-128.8125,0.0,0.0,0.0
517,1695814333383,-1.8720703,-0.00390625,0.12207031,85.375,-95.0,-207.15625,0.0,0.0,0.0
518,1695814333435,-1.3720703,-0.81347656,-0.32226562,-182.9375,8.96875,-220.0,0.0,0.0,0.0
519,1695814333459,-0.8535156,-0.20703125,-0.16796875,20.3125,20.25,-166.53125,0.0,0.0,0.0
520,1695814333509,-0.51660156,-0.109375,-0.12109375,128.03125,0.0,-94.0625,0.0,0.0,0.0
521,1695814333559,-0.15527344,0.11230469,-0.21777344,227.65625,-15.21875,-27.0625,0.0,0.0,0.0
522,1695814333583,0.18359375,0.5341797,-0.14453125,188.40625,38.4375,45.6875,0.0,0.0,0.0
523,1695814333634,-0.032226562,0.5605469,0.15625,64.9375,63.65625,98.9375,0.0,0.0,0.0
524,1695814333660,-2.0,-0.22753906,1.4921875,207.9375,70.1875,112.84375,0.0,0.0,0.0
525,1695814333711,-1.6650391,-1.1523438,0.95214844,-61.28125,-15.625,-130.5,0.0,0.0,0.0
526,1695814333765,-0.296875,0.33984375,0.11230469,-158.875,38.6875,-27.0625,-85.5,18.8125,-32.625
527,1695814333783,-1.2392578,0.7890625,0.18457031,-145.875,33.90625,53.875,0.0,0.0,0.0
528,1695814333833,-1.3085938,-1.1152344,-1.6367188,-39.5,91.96875,-38.09375,0.0,0.0,0.0
529,1695814333857,-0.48242188,1.1328125,-0.43847656,-102.75,80.78125,73.03125,0.0,0.0,0.0
530,1695814333908,-1.0283203,0.234375,-0.15527344,7.375,55.21875,128.53125,0.0,0.0,0.0
531,1695814333960,-1.1015625,-0.875,-0.16796875,-60.8125,72.25,69.875,0.0,0.0,0.0
532,1695814333985,-0.6044922,0.40820312,-0.08691406,-83.8125,53.03125,58.875,0.0,0.0,0.0
533,1695814334059,-0.6464844,-0.17285156,-0.45507812,-76.25,61.4375,59.625,0.0,0.0,0.0
534,1695814334061,-0.984375,-0.30566406,-0.025390625,-74.96875,84.03125,54.90625,0.0,0.0,0.0
535,1695814334109,-0.8798828,0.13671875,-0.09765625,-70.03125,69.25,51.0625,0.0,0.0,0.0
536,1695814334158,-0.9941406,-0.36621094,-0.08496094,-97.78125,51.875,67.84375,0.0,0.0,0.0
537,1695814334184,-0.8017578,-0.7392578,-0.12695312,-50.625,21.96875,54.6875,0.0,0.0,0.0
538,1695814334232,-1.0957031,-0.57714844,-0.28320312,-13.875,16.34375,24.71875,-94.1875,29.5625,-62.75
539,1695814334259,-1.2177734,-0.40234375,0.1015625,-7.03125,-8.6875,10.1875,0.0,0.0,0.0
540,1695814334309,-1.2333984,-0.7832031,-0.15039062,30.625,-82.78125,-40.3125,0.0,0.0,0.0
541,1695814334359,-1.8222656,-0.29882812,0.005859375,25.125,-182.875,-124.46875,0.0,0.0,0.0
542,1695814334383,-1.9960938,1.0068359,-0.45996094,51.25,-134.0,-162.0,0.0,0.0,0.0
543,1695814334460,-2.0,0.35546875,-0.53125,98.0625,-107.5,-232.1875,0.0,0.0,0.0
544,1695814334462,-1.5800781,0.22363281,-0.060546875,75.0,-102.6875,-174.03125,0.0,0.0,0.0
545,1695814334533,-0.61621094,-0.03515625,-0.068359375,-3.96875,-37.4375,-133.0,0.0,0.0,0.0
546,1695814334560,-0.27246094,-0.18847656,-0.2626953,117.96875,-52.03125,-75.34375,0.0,0.0,0.0
547,1695814334583,-0.099609375,0.041992188,-0.14648438,178.8125,-57.6875,-16.875,0.0,0.0,0.0
548,1695814334632,-0.0703125,0.44140625,-0.07324219,96.125,-3.8125,27.5,0.0,0.0,0.0
549,1695814334658,-0.12792969,0.7050781,-0.15722656,-65.75,66.625,80.5,0.0,0.0,0.0
550,1695814334708,-1.5878906,-0.5361328,1.4990234,151.34375,68.84375,124.0,0.0,0.0,0.0
551,1695814334759,-1.5419922,-0.88671875,0.63671875,-7.53125,61.625,-128.75,-86.875,20.0,-29.0
552,1695814334782,-0.5908203,0.5292969,0.453125,-149.125,25.125,-33.84375,0.0,0.0,0.0
553,1695814334832,-1.3896484,0.33984375,-0.06542969,-84.4375,-31.21875,112.59375,0.0,0.0,0.0
554,1695814334858,-1.359375,-1.71875,-1.2744141,-87.40625,113.6875,-60.75,0.0,0.0,0.0
555,1695814334933,-0.44921875,0.6376953,-0.5292969,-74.65625,59.5625,62.78125,0.0,0.0,0.0
556,1695814334961,-0.9863281,0.21875,0.078125,13.59375,58.75,120.09375,0.0,0.0,0.0
557,1695814334985,-1.2910156,-0.9316406,-0.052734375,11.53125,82.5,75.59375,0.0,0.0,0.0
558,1695814335032,-0.5722656,0.33691406,-0.025390625,-25.53125,53.8125,81.40625,0.0,0.0,0.0
559,1695814335058,-0.7373047,-0.125,-0.18554688,-25.65625,72.125,111.0625,0.0,0.0,0.0
560,1695814335109,-0.6982422,0.057617188,-0.31152344,-62.625,103.5,77.375,0.0,0.0,0.0
561,1695814335158,-0.9609375,0.13476562,-0.08984375,-73.125,92.28125,90.0,0.0,0.0,0.0
562,1695814335182,-0.9140625,-0.3515625,0.07324219,-88.03125,60.46875,73.40625,0.0,0.0,0.0
563,1695814335232,-1.1611328,-0.5390625,-0.18847656,-67.71875,29.46875,62.0625,-94.8125,38.125,-53.3125
564,1695814335260,-1.2919922,-0.4970703,-0.1484375,-42.875,-6.4375,40.4375,0.0,0.0,0.0
565,1695814335307,-1.4404297,-0.7128906,0.045898438,-12.28125,-10.875,3.09375,0.0,0.0,0.0
566,1695814335358,-1.3222656,-0.5703125,0.08984375,46.8125,-82.09375,-43.46875,0.0,0.0,0.0
567,1695814335383,-1.6162109,-0.44921875,-0.14453125,59.3125,-165.59375,-138.8125,0.0,0.0,0.0
568,1695814335433,-2.0,1.2626953,-0.80078125,78.71875,-140.34375,-173.28125,0.0,0.0,0.0
569,1695814335483,-1.8544922,0.27148438,-0.13085938,86.53125,-120.4375,-205.34375,0.0,0.0,0.0
570,1695814335509,-1.3457031,0.11328125,-0.103515625,50.46875,-110.4375,-204.90625,0.0,0.0,0.0
571,1695814335533,-0.6621094,0.0048828125,-0.13574219,-37.78125,-43.15625,-159.0,0.0,0.0,0.0
572,1695814335583,-0.3125,-0.16601562,-0.19824219,109.53125,-42.875,-98.15625,0.0,0.0,0.0
573,1695814335632,-0.07910156,0.09765625,-0.14941406,179.375,-40.1875,-37.5625,0.0,0.0,0.0
574,1695814335658,0.07519531,0.48339844,0.0107421875,142.1875,12.375,15.5625,0.0,0.0,0.0
575,1695814335709,-0.1484375,0.5703125,0.0029296875,-18.625,56.125,79.09375,0.0,0.0,0.0
576,1695814335758,-1.8173828,-0.50683594,1.0146484,195.78125,106.0,135.96875,-88.1875,22.5625,-27.6875
577,1695814335782,-1.9248047,-0.8642578,0.921875,-59.34375,70.40625,-103.59375,0.0,0.0,0.0
578,1695814335833,-0.27539062,-0.16113281,0.29492188,-138.6875,43.0,-47.25,0.0,0.0,0.0
579,1695814335860,-0.44726562,0.29101562,-0.8330078,-201.0,93.4375,100.5,0.0,0.0,0.0
580,1695814335909,-2.0,-1.0087891,0.7578125,203.0625,89.875,83.65625,0.0,0.0,0.0
581,1695814335932,0.5185547,0.7783203,0.66503906,-245.1875,66.875,-59.09375,0.0,0.0,0.0
582,1695814335984,-0.6533203,0.93847656,0.0009765625,-28.875,15.90625,108.75,0.0,0.0,0.0
583,1695814336033,-2.0,-0.5175781,-0.7832031,-157.4375,138.0,141.34375,0.0,0.0,0.0
584,1695814336059,-0.4970703,-0.3076172,0.059570312,-93.65625,24.9375,80.90625,0.0,0.0,0.0
585,1695814336108,-0.66503906,0.21289062,-0.58496094,-52.03125,72.6875,100.03125,0.0,0.0,0.0
586,1695814336132,-0.8730469,-0.07714844,0.14355469,-46.03125,94.65625,91.84375,0.0,0.0,0.0
587,1695814336185,-0.9873047,-0.24902344,0.018554688,-49.28125,90.375,75.96875,0.0,0.0,0.0
588,1695814336235,-1.0078125,-0.328125,0.07421875,-80.40625,29.21875,57.40625,-96.625,34.8125,-53.3125
589,1695814336260,-1.1064453,-0.8105469,-0.18847656,-60.4375,4.375,46.0,0.0,0.0,0.0
590,1695814336309,-1.1660156,-0.45703125,-0.26464844,11.46875,-3.6875,7.5,0.0,0.0,0.0
591,1695814336332,-1.2470703,-0.3310547,0.11035156,14.75,-21.875,0.65625,0.0,0.0,0.0
592,1695814336385,-1.3232422,-0.33984375,-0.061523438,29.65625,-126.125,-76.0,0.0,0.0,0.0
593,1695814336433,-1.9599609,-0.123046875,0.3095703,-53.90625,-189.96875,-167.8125,0.0,0.0,0.0
594,1695814336457,-1.7539062,0.8154297,-0.52441406,103.75,-120.0,-180.9375,0.0,0.0,0.0
595,1695814336509,-2.0,0.041992188,-0.13769531,-73.3125,-169.3125,-216.3125,0.0,0.0,0.0
596,1695814336532,-1.1748047,-0.057617188,-0.171875,1.6875,-80.65625,-201.8125,0.0,0.0,0.0
597,1695814336582,-0.69433594,-0.20507812,-0.13476562,43.125,-4.46875,-159.4375,0.0,0.0,0.0
598,1695814336640,-0.24707031,-0.044921875,-0.3671875,119.0,-27.0625,-87.1875,0.0,0.0,0.0
599,1695814336658,0.08691406,0.40429688,-0.10449219,226.65625,0.65625,-0.125,0.0,0.0,0.0
600,1695814336709,0.56347656,0.8935547,-0.09277344,171.125,40.6875,65.34375,0.0,0.0,0.0
601,1695814336758,-0.6699219,0.2578125,0.48828125,66.875,65.0,86.59375,-94.1875,15.9375,-30.9375
602,1695814336782,-1.5888672,-1.2646484,1.5761719,383.40625,-76.8125,39.90625,0.0,0.0,0.0
603,1695814336834,-1.1552734,-0.8232422,1.1679688,-153.40625,8.21875,-97.125,0.0,0.0,0.0
604,1695814336858,-0.86035156,0.56640625,-0.78125,-215.09375,35.625,58.09375,0.0,0.0,0.0
605,1695814336909,-1.7490234,0.6035156,1.1982422,-75.09375,79.15625,41.3125,0.0,0.0,0.0
606,1695814336933,-1.1875,-0.28808594,0.49804688,-7.40625,-26.125,-74.46875,0.0,0.0,0.0
607,1695814336983,-0.36035156,1.6953125,-0.15332031,-37.5,63.03125,74.21875,0.0,0.0,0.0
608,1695814337060,-1.2138672,0.54589844,-0.37304688,-168.65625,80.71875,122.125,0.0,0.0,0.0
609,1695814337063,-1.1435547,-1.3779297,-0.31640625,-8.5,92.625,105.5,0.0,0.0,0.0
610,1695814337109,-0.65234375,0.11328125,-0.25,-69.34375,51.0625,77.6875,0.0,0.0,0.0
611,1695814337134,-0.61328125,0.2998047,-0.018554688,-21.375,97.28125,73.34375,0.0,0.0,0.0
612,1695814337183,-1.0068359,0.041015625,-0.12011719,-98.78125,68.15625,97.03125,0.0,0.0,0.0
613,1695814337234,-0.6796875,-0.3642578,-0.30078125,-144.375,41.3125,78.34375,-97.625,36.9375,-58.875
614,1695814337261,-1.1865234,-0.578125,-0.26171875,-66.96875,17.6875,74.25,0.0,0.0,0.0
615,1695814337309,-1.1816406,-0.7285156,-0.27148438,-56.46875,-2.53125,34.53125,0.0,0.0,0.0
616,1695814337332,-1.1542969,-0.57128906,-0.045898438,9.1875,-0.4375,19.03125,0.0,0.0,0.0
617,1695814337383,-1.3242188,-0.4267578,0.20898438,45.53125,-56.28125,-34.9375,0.0,0.0,0.0
618,1695814337433,-1.6025391,-0.35351562,-0.38671875,80.4375,-159.0625,-121.0625,0.0,0.0,0.0
619,1695814337457,-2.0,1.1582031,-0.37109375,-42.625,-160.0,-177.03125,0.0,0.0,0.0
620,1695814337510,-1.7382812,0.3798828,0.20117188,94.03125,-84.65625,-210.09375,0.0,0.0,0.0
621,1695814337584,-1.4472656,-0.21972656,-0.033203125,-11.78125,-80.03125,-206.6875,0.0,0.0,0.0
622,1695814337586,-0.6347656,-0.22753906,-0.20703125,-12.09375,-39.5,-164.0625,0.0,0.0,0.0
623,1695814337634,-0.30273438,-0.03515625,-0.2685547,112.28125,-46.15625,-105.84375,0.0,0.0,0.0
624,1695814337659,-0.024414062,0.06640625,-0.028320312,195.96875,-66.59375,-42.625,0.0,0.0,0.0
625,1695814337711,0.09375,0.38867188,-0.11816406,162.40625,-12.78125,8.84375,0.0,0.0,0.0
626,1695814337760,0.087890625,0.63964844,-0.24902344,-12.71875,76.15625,56.25,-90.0,13.5625,-28.6875
627,1695814337783,-1.5351562,-0.21777344,0.22753906,70.71875,172.96875,94.09375,0.0,0.0,0.0
628,1695814337863,-2.0,-1.5576172,0.8642578,190.71875,-4.34375,-51.96875,0.0,0.0,0.0
629,1695814337867,-0.36328125,-0.31054688,0.46289062,-153.65625,-3.625,-59.90625,0.0,0.0,0.0
630,1695814337909,-1.4814453,0.47558594,-0.70410156,-143.09375,31.84375,115.09375,0.0,0.0,0.0
631,1695814337933,-2.0,-2.0,-1.9003906,-11.6875,106.96875,-105.96875,0.0,0.0,0.0
632,1695814337983,0.08496094,1.2402344,-0.69921875,-111.46875,70.59375,9.125,0.0,0.0,0.0
633,1695814338034,-1.1601562,0.6699219,0.15039062,30.5,64.75,154.40625,0.0,0.0,0.0
634,1695814338061,-1.1083984,-1.0703125,-0.09277344,21.59375,83.1875,70.25,0.0,0.0,0.0
635,1695814338109,-0.5126953,0.3076172,-0.123046875,-79.3125,44.40625,87.375,0.0,0.0,0.0
636,1695814338134,-0.7441406,-0.21777344,-0.36328125,-54.40625,71.28125,113.75,0.0,0.0,0.0
637,1695814338184,-0.88671875,0.0078125,-0.22167969,-57.15625,89.78125,80.71875,0.0,0.0,0.0
638,1695814338234,-0.9404297,-0.1484375,0.107421875,-69.03125,67.1875,80.25,-100.5,32.75,-53.9375
639,1695814338260,-0.9589844,-0.59472656,0.07128906,-61.46875,25.8125,53.875,0.0,0.0,0.0
640,1695814338309,-1.0068359,-0.58496094,-0.13769531,-55.375,17.3125,37.09375,0.0,0.0,0.0
641,1695814338332,-1.0380859,-0.21289062,-0.40625,-41.875,-4.09375,22.03125,0.0,0.0,0.0
642,1695814338383,-1.4375,-0.57910156,0.0234375,-19.53125,-0.25,22.8125,0.0,0.0,0.0
643,1695814338432,-1.2978516,-0.6386719,0.22265625,45.75,-64.90625,-9.84375,0.0,0.0,0.0
644,1695814338458,-1.0908203,-0.31054688,-0.061523438,32.875,-138.0625,-115.75,0.0,0.0,0.0
645,1695814338509,-2.0,0.51171875,-0.28320312,53.21875,-148.75,-177.09375,0.0,0.0,0.0
646,1695814338532,-1.7119141,0.23242188,0.13085938,88.25,-102.0625,-198.625,0.0,0.0,0.0
647,1695814338583,-1.7060547,-0.4892578,-0.4111328,-87.90625,-33.59375,-204.84375,0.0,0.0,0.0
648,1695814338633,-0.85253906,-0.19042969,-0.15527344,9.625,-28.8125,-175.84375,0.0,0.0,0.0
649,1695814338658,-0.40234375,-0.19140625,-0.18652344,97.8125,-36.5625,-108.59375,0.0,0.0,0.0
650,1695814338710,-0.009765625,0.13183594,-0.14355469,191.6875,-42.75,-53.46875,0.0,0.0,0.0
651,1695814338733,0.1171875,0.34960938,-0.19824219,198.40625,12.5,4.6875,-85.8125,13.8125,-24.8125
652,1695814338783,0.1484375,0.60058594,-0.060546875,55.53125,62.0,78.28125,0.0,0.0,0.0
653,1695814338833,-1.9169922,-0.4033203,1.1455078,173.5625,102.78125,126.21875,0.0,0.0,0.0
654,1695814338883,-1.7753906,-1.1445312,0.84472656,35.625,37.21875,-84.5625,0.0,0.0,0.0
655,1695814338908,-0.671875,0.37597656,0.40234375,-52.8125,38.4375,-23.5625,0.0,0.0,0.0
656,1695814338933,-1.2402344,0.60058594,-0.23242188,-138.3125,-18.6875,54.90625,0.0,0.0,0.0
657,1695814338983,-0.85839844,-0.7626953,-0.92285156,-104.875,96.34375,-44.375,0.0,0.0,0.0
658,1695814339033,-0.71191406,0.6308594,-0.81640625,-98.78125,107.84375,82.3125,0.0,0.0,0.0
659,1695814339060,-2.0,0.23925781,0.14550781,36.84375,49.53125,126.5625,0.0,0.0,0.0
660,1695814339107,-0.84375,-0.46777344,0.076171875,-94.4375,54.0,72.5625,0.0,0.0,0.0
661,1695814339132,-0.54003906,0.3720703,-0.08984375,-28.09375,56.8125,90.0,0.0,0.0,0.0
662,1695814339184,-0.7138672,-0.17285156,-0.36328125,-85.59375,73.96875,103.3125,0.0,0.0,0.0
663,1695814339233,-0.8359375,-0.0078125,-0.072265625,-65.6875,92.625,75.84375,-99.75,27.3125,-49.4375
664,1695814339260,-1.0449219,-0.095703125,-0.107421875,-87.96875,73.71875,80.5625,0.0,0.0,0.0
665,1695814339307,-0.7919922,-0.61035156,0.15527344,-75.03125,37.53125,63.59375,0.0,0.0,0.0
666,1695814339332,-1.1630859,-0.48242188,-0.20507812,-75.09375,7.625,29.34375,0.0,0.0,0.0
667,1695814339382,-1.2080078,-0.5546875,-0.2626953,-24.625,-9.90625,33.1875,0.0,0.0,0.0
668,1695814339432,-1.3466797,-0.84472656,-0.2109375,23.59375,-23.15625,-1.71875,0.0,0.0,0.0
669,1695814339458,-1.6582031,-0.6044922,-0.20507812,159.46875,-106.65625,-82.0,0.0,0.0,0.0
670,1695814339507,-2.0,0.70410156,0.2861328,34.28125,-163.84375,-180.125,0.0,0.0,0.0
671,1695814339534,-1.5458984,0.8613281,-0.23925781,42.03125,-109.875,-142.03125,0.0,0.0,0.0
672,1695814339584,-1.8095703,-0.16210938,-0.13867188,61.09375,-97.84375,-196.375,0.0,0.0,0.0
673,1695814339634,-0.96875,0.13183594,-0.2705078,-55.75,-99.5625,-170.1875,0.0,0.0,0.0
674,1695814339664,-0.59472656,-0.27441406,-0.328125,24.59375,-54.59375,-124.15625,0.0,0.0,0.0
675,1695814339708,-0.060546875,-0.15136719,-0.07128906,136.75,-63.8125,-59.71875,0.0,0.0,0.0
676,1695814339733,-0.05859375,0.17871094,-0.09082031,138.53125,-36.34375,-8.125,-83.6875,11.875,-25.4375
677,1695814339782,0.19726562,0.40820312,-0.17089844,77.25,7.125,26.21875,0.0,0.0,0.0
678,1695814339832,-0.33496094,-0.0078125,-0.10546875,-56.34375,96.84375,91.65625,0.0,0.0,0.0
679,1695814339858,-2.0,-0.97753906,1.8193359,268.53125,69.875,172.46875,0.0,0.0,0.0
680,1695814339908,-1.4960938,-0.671875,0.96484375,-93.71875,26.28125,-148.625,0.0,0.0,0.0
681,1695814339933,-0.66503906,0.40820312,0.26464844,-51.34375,22.75,2.5,0.0,0.0,0.0
682,1695814339982,-2.0,-0.024414062,-0.45214844,-143.4375,-35.21875,115.78125,0.0,0.0,0.0
683,1695814340032,-0.091796875,-0.49023438,0.36816406,-104.09375,60.40625,-90.65625,0.0,0.0,0.0
684,1695814340058,-0.48046875,0.8095703,-0.71484375,-49.28125,113.15625,106.375,0.0,0.0,0.0
685,1695814340107,-2.0,0.13867188,0.0625,-60.625,67.78125,141.78125,0.0,0.0,0.0
686,1695814340132,-0.7001953,-0.31445312,0.09082031,-65.6875,34.71875,72.1875,0.0,0.0,0.0
687,1695814340183,-0.5605469,0.34960938,-0.22070312,-2.8125,39.28125,114.375,0.0,0.0,0.0
688,1695814340233,-0.6875,-0.08691406,-0.2861328,-50.5,93.96875,86.90625,-97.0625,27.5,-42.6875
689,1695814340260,-1.1123047,0.08300781,0.07128906,-67.59375,83.46875,90.6875,0.0,0.0,0.0
690,1695814340309,-0.77441406,-0.25390625,-0.20019531,-77.09375,56.25,83.78125,0.0,0.0,0.0
691,1695814340334,-1.0615234,-0.5859375,0.12792969,-46.65625,26.53125,63.59375,0.0,0.0,0.0
692,1695814340383,-1.2089844,-0.46191406,-0.22460938,-86.8125,-10.28125,17.5,0.0,0.0,0.0
693,1695814340432,-1.1875,-0.6513672,-0.033203125,-29.25,-25.21875,8.15625,0.0,0.0,0.0
694,1695814340457,-1.3085938,-0.7529297,-0.036132812,35.6875,-89.6875,-39.0625,0.0,0.0,0.0
695,1695814340508,-1.5390625,-0.3720703,0.053710938,130.71875,-152.25,-130.09375,0.0,0.0,0.0
696,1695814340533,-2.0,1.1591797,-0.40820312,49.65625,-161.46875,-154.5625,0.0,0.0,0.0
697,1695814340609,-1.7871094,0.41601562,-0.08203125,-4.03125,-81.75,-180.0,0.0,0.0,0.0
698,1695814340659,-1.2978516,-0.33007812,-0.33398438,16.34375,-61.46875,-192.40625,0.0,0.0,0.0
699,1695814340664,-0.7998047,-0.18457031,-0.18164062,23.65625,-17.40625,-156.75,0.0,0.0,0.0
700,1695814340709,-0.2890625,-0.06347656,-0.057617188,128.46875,-43.65625,-98.78125,0.0,0.0,0.0
701,1695814340732,0.052734375,0.10839844,-0.22363281,199.09375,-29.125,-52.03125,-80.875,14.125,-23.625
702,1695814340783,0.053710938,0.19140625,-0.119140625,136.15625,5.34375,2.65625,0.0,0.0,0.0
703,1695814340834,-0.24511719,0.5644531,0.22558594,43.9375,43.6875,74.15625,0.0,0.0,0.0
704,1695814340859,-1.6005859,-0.20410156,0.5517578,153.96875,162.65625,101.65625,0.0,0.0,0.0
705,1695814340909,-1.8955078,-1.0087891,0.9501953,3.46875,30.375,-58.1875,0.0,0.0,0.0
706,1695814340959,-0.12011719,-0.18945312,0.515625,-121.96875,6.28125,-14.90625,0.0,0.0,0.0
707,1695814340983,-0.73339844,0.9082031,-0.9638672,-290.84375,85.6875,67.6875,0.0,0.0,0.0
708,1695814341034,-2.0,-1.0859375,-0.88964844,-21.6875,110.59375,94.15625,0.0,0.0,0.0
709,1695814341060,-0.8154297,0.1328125,0.8046875,-82.0,-105.0625,-102.90625,0.0,0.0,0.0
710,1695814341109,0.099609375,1.7880859,-0.5078125,-46.65625,79.5625,98.1875,0.0,0.0,0.0
711,1695814341134,-1.6835938,-0.10546875,-0.45703125,-96.875,105.09375,160.3125,0.0,0.0,0.0
712,1695814341182,-0.5673828,-0.7324219,-0.14355469,-135.75,64.9375,68.90625,0.0,0.0,0.0
713,1695814341232,-0.7128906,0.54003906,-0.34375,-69.96875,59.625,76.21875,-94.9375,26.0,-43.125
714,1695814341259,-0.8730469,-0.27246094,0.025390625,-92.78125,79.875,79.34375,0.0,0.0,0.0
715,1695814341308,-0.8808594,-0.35546875,-0.21679688,-109.6875,38.8125,65.90625,0.0,0.0,0.0
716,1695814341332,-0.9433594,-0.6503906,0.078125,-10.28125,48.375,67.25,0.0,0.0,0.0
717,1695814341383,-1.3730469,-0.33007812,-0.009765625,-58.3125,4.0,31.59375,0.0,0.0,0.0
718,1695814341434,-1.1103516,-0.7705078,-0.016601562,-22.125,-26.03125,15.71875,0.0,0.0,0.0
719,1695814341458,-1.1748047,-0.7919922,0.10546875,32.28125,-36.03125,-29.5625,0.0,0.0,0.0
720,1695814341508,-1.2128906,-0.06933594,-0.21386719,83.90625,-136.0625,-84.96875,0.0,0.0,0.0
721,1695814341532,-2.0,0.17675781,0.36035156,-17.59375,-209.3125,-157.5,0.0,0.0,0.0
722,1695814341582,-1.6259766,0.6074219,-0.49414062,20.0,-100.34375,-168.03125,0.0,0.0,0.0
723,1695814341659,-1.7890625,-0.21191406,0.17089844,-82.53125,-134.34375,-205.8125,0.0,0.0,0.0
724,1695814341661,-1.1484375,-0.1328125,-0.26367188,12.0,-52.3125,-205.875,0.0,0.0,0.0
725,1695814341734,-0.5703125,-0.16699219,-0.08886719,78.90625,-22.65625,-128.8125,0.0,0.0,0.0
726,1695814341737,-0.115234375,0.051757812,-0.27734375,215.3125,-55.5625,-67.28125,-81.4375,11.4375,-27.9375
727,1695814341782,-0.020507812,0.16796875,-0.21679688,234.1875,-29.4375,-6.71875,0.0,0.0,0.0
728,1695814341834,0.21289062,0.5732422,-0.24121094,105.34375,27.34375,51.3125,0.0,0.0,0.0
729,1695814341859,-0.5419922,0.50097656,0.36914062,70.59375,75.78125,86.65625,0.0,0.0,0.0
730,1695814341911,-2.0,-1.2880859,1.7246094,263.34375,46.875,35.09375,0.0,0.0,0.0
731,1695814341933,-0.96484375,-0.17675781,1.0859375,-174.5625,-10.8125,-110.96875,0.0,0.0,0.0
732,1695814341982,-2.0,0.8378906,0.15234375,-128.75,47.28125,83.65625,0.0,0.0,0.0
733,1695814342060,-1.7587891,-1.1152344,-1.0244141,-168.28125,-15.75,-25.28125,0.0,0.0,0.0
734,1695814342064,0.08886719,0.22851562,-0.140625,-237.9375,35.375,-34.0,0.0,0.0,0.0
735,1695814342108,-0.81640625,0.6669922,-0.47753906,-7.15625,109.3125,136.75,0.0,0.0,0.0
736,1695814342132,-1.890625,-0.8691406,-0.32128906,-29.6875,138.15625,89.28125,0.0,0.0,0.0
737,1695814342184,-0.640625,0.22558594,-0.057617188,-112.875,60.59375,75.4375,0.0,0.0,0.0
738,1695814342234,-0.7451172,-0.15917969,-0.34765625,-75.5625,55.09375,114.1875,-92.125,25.25,-41.0
739,1695814342259,-0.8378906,-0.12011719,-0.32714844,-79.96875,99.53125,83.40625,0.0,0.0,0.0
740,1695814342308,-0.90722656,-0.09472656,0.02734375,-67.15625,78.84375,85.625,0.0,0.0,0.0
741,1695814342333,-0.9609375,-0.3203125,-0.1015625,-66.1875,68.53125,56.25,0.0,0.0,0.0
742,1695814342383,-0.9638672,-0.66015625,-0.046875,-39.1875,16.84375,41.90625,0.0,0.0,0.0
743,1695814342434,-1.1054688,-0.30859375,-0.23046875,-59.03125,-11.625,18.125,0.0,0.0,0.0
744,1695814342459,-1.2314453,-0.7236328,-0.09277344,-9.34375,-15.875,0.71875,0.0,0.0,0.0
745,1695814342509,-1.5029297,-0.6533203,0.06640625,36.96875,-61.21875,-26.1875,0.0,0.0,0.0
746,1695814342533,-1.6289062,-0.28320312,-0.12402344,94.71875,-157.1875,-123.375,0.0,0.0,0.0
747,1695814342585,-2.0,1.0566406,-0.796875,70.46875,-183.125,-165.3125,0.0,0.0,0.0
748,1695814342634,-1.6230469,0.32128906,0.21289062,-3.375,-112.4375,-170.4375,0.0,0.0,0.0
749,1695814342658,-1.5615234,-0.61328125,-0.39648438,-100.40625,-78.5625,-205.34375,0.0,0.0,0.0
750,1695814342708,-0.8574219,-0.29785156,-0.23046875,-21.875,-24.375,-172.125,0.0,0.0,0.0
751,1695814342733,-0.3232422,-0.057617188,-0.111328125,115.875,-26.1875,-107.375,-77.5625,12.3125,-31.25
752,1695814342783,0.020507812,0.15917969,-0.2265625,196.6875,-36.5,-53.84375,0.0,0.0,0.0
753,1695814342834,0.13085938,0.21582031,-0.25390625,162.59375,-8.75,7.125,0.0,0.0,0.0
754,1695814342858,0.20214844,0.55859375,0.034179688,89.875,53.375,54.96875,0.0,0.0,0.0
755,1695814342908,-1.5625,-0.14453125,0.38671875,186.5,123.28125,113.75,0.0,0.0,0.0
756,1695814342933,-1.9101562,-1.1054688,0.98046875,159.46875,13.03125,-46.65625,0.0,0.0,0.0
757,1695814342984,-0.39257812,-0.043945312,0.68652344,-31.03125,1.5625,-44.15625,0.0,0.0,0.0
758,1695814343034,-0.30371094,0.4111328,-1.3320312,-258.25,68.65625,29.03125,0.0,0.0,0.0
759,1695814343059,-2.0,0.5830078,2.0,140.65625,70.34375,159.40625,0.0,0.0,0.0
