# Sensor type: Thingy
# Activity type: Descending stairs
# Activity subtype: Normal
# Subject id: s1862623
# Notes: 
timestamp,accel_x,accel_y,accel_z,gyro_x,gyro_y,gyro_z,mag_x,mag_y,mag_z
1695813814154,-0.8623047,0.19824219,0.31640625,-30.53125,12.875,19.625,0.0,0.0,0.0
1695813814203,-1.0302734,0.6171875,0.0390625,1.8125,43.625,27.28125,0.0,0.0,0.0
1695813814229,-1.2275391,-0.021484375,-0.001953125,4.0,50.9375,53.5625,0.0,0.0,0.0
1695813814278,-1.0820312,-0.052734375,-0.32128906,-41.9375,54.4375,55.15625,0.0,0.0,0.0
1695813814329,-2.0,-0.032226562,-0.08984375,-50.0,72.0,133.84375,0.0,0.0,0.0
1695813814353,-1.359375,-0.28320312,-0.09375,-4.59375,115.71875,105.34375,0.0,0.0,0.0
1695813814404,-0.9863281,-0.07910156,-0.095703125,-26.75,80.375,59.8125,0.0,0.0,0.0
1695813814428,-0.9013672,0.16210938,-0.13574219,2.84375,55.65625,8.84375,-89.5625,18.5,-58.25
1695813814479,-0.76953125,-0.053710938,-0.11621094,25.4375,35.5625,1.3125,0.0,0.0,0.0
1695813814529,-0.5341797,-0.12890625,-0.19921875,27.6875,-13.75,-39.6875,0.0,0.0,0.0
1695813814553,-0.64160156,-0.017578125,-0.020507812,8.53125,-42.5,-72.53125,0.0,0.0,0.0
1695813814606,-0.6123047,0.07128906,0.005859375,-21.5625,-55.125,-92.46875,0.0,0.0,0.0
1695813814628,-0.5957031,0.36035156,-0.14941406,-40.0625,-47.5,-83.03125,0.0,0.0,0.0
1695813814681,-0.9658203,0.13183594,-0.234375,-0.375,-54.6875,-59.53125,0.0,0.0,0.0
1695813814729,-0.84375,0.30078125,-0.052734375,88.3125,-60.3125,-54.6875,0.0,0.0,0.0
1695813814754,-0.8017578,-0.021484375,-0.21289062,25.3125,-71.25,-28.21875,0.0,0.0,0.0
1695813814803,-0.71972656,-0.20800781,-0.25390625,-46.9375,-72.28125,-5.21875,0.0,0.0,0.0
1695813814829,-1.1357422,-0.32128906,-0.33984375,-19.84375,-37.75,-0.6875,0.0,0.0,0.0
1695813814881,-2.0,0.0029296875,0.57714844,-36.03125,4.125,16.40625,0.0,0.0,0.0
1695813814928,-1.6054688,0.30273438,-0.30664062,-55.8125,40.875,90.5625,-97.0625,9.0625,-45.1875
1695813814954,-0.9658203,-0.31445312,0.47753906,-23.75,50.65625,41.0,0.0,0.0,0.0
1695813815007,-1.1650391,-0.03515625,0.10644531,47.40625,-36.625,-42.8125,0.0,0.0,0.0
1695813815028,-1.2949219,0.06347656,-0.115234375,-20.28125,-38.71875,-25.09375,0.0,0.0,0.0
1695813815079,-0.9199219,-0.11621094,-0.051757812,19.75,-13.375,-5.4375,0.0,0.0,0.0
1695813815129,-1.015625,0.15332031,-0.10644531,8.53125,-0.4375,-4.53125,0.0,0.0,0.0
1695813815155,-0.7998047,0.029296875,-0.029296875,-4.28125,31.25,25.4375,0.0,0.0,0.0
1695813815205,-0.40429688,-0.13964844,0.19238281,15.0625,15.5625,-6.59375,0.0,0.0,0.0
1695813815229,-0.48632812,0.13964844,-0.19335938,-20.09375,24.03125,2.25,0.0,0.0,0.0
1695813815279,-0.69628906,-0.13085938,0.03125,-48.53125,35.375,14.9375,0.0,0.0,0.0
1695813815329,-0.76660156,0.39648438,-0.24707031,-62.46875,38.125,10.84375,0.0,0.0,0.0
1695813815354,-1.7539062,0.52734375,-0.24804688,-33.46875,87.09375,65.0,0.0,0.0,0.0
1695813815405,-1.1269531,0.044921875,-0.20996094,27.9375,136.09375,103.3125,0.0,0.0,0.0
1695813815429,-2.0,-0.05859375,0.001953125,23.96875,90.75,100.25,-89.875,15.9375,-56.3125
1695813815479,-1.1484375,-0.0546875,-0.1875,-10.34375,27.4375,94.78125,0.0,0.0,0.0
1695813815530,-0.8017578,-0.08984375,-0.30273438,33.0,-10.5625,41.4375,0.0,0.0,0.0
1695813815555,-0.80566406,-0.23144531,-0.2685547,22.25,-26.25,-3.3125,0.0,0.0,0.0
1695813815607,-0.54589844,-0.11816406,-0.3955078,8.09375,-21.5625,-53.375,0.0,0.0,0.0
1695813815630,-0.4296875,0.21679688,-0.3154297,-2.59375,-33.40625,-68.3125,0.0,0.0,0.0
1695813815679,-0.59375,0.21679688,-0.03125,-23.5,-61.34375,-108.46875,0.0,0.0,0.0
1695813815728,-0.70214844,0.119140625,-0.04296875,24.8125,-0.875,-103.59375,0.0,0.0,0.0
1695813815753,-0.99902344,0.064453125,-0.16699219,95.75,-14.0,-63.96875,0.0,0.0,0.0
1695813815805,-0.55078125,0.13769531,-0.22558594,2.5,-103.84375,-44.4375,0.0,0.0,0.0
1695813815830,-0.29882812,-0.06347656,-0.31347656,-42.375,-79.1875,-17.09375,0.0,0.0,0.0
1695813815880,-1.890625,-0.10449219,-0.2626953,30.1875,-26.3125,11.03125,0.0,0.0,0.0
1695813815928,-1.9541016,-0.076171875,-0.9267578,-72.53125,-5.21875,96.65625,-94.8125,8.4375,-51.5
1695813815955,-1.3525391,0.017578125,0.43847656,-55.875,115.46875,128.28125,0.0,0.0,0.0
1695813816004,-0.54296875,-0.3857422,0.41210938,26.84375,30.0,15.84375,0.0,0.0,0.0
1695813816029,-1.0322266,0.3466797,-0.1328125,0.21875,-37.96875,-41.03125,0.0,0.0,0.0
1695813816079,-1.4746094,0.29003906,-0.01953125,-6.84375,-44.28125,16.90625,0.0,0.0,0.0
1695813816180,-0.6484375,-0.001953125,-0.14355469,47.96875,5.65625,-1.40625,0.0,0.0,0.0
1695813816182,-0.70214844,-0.25683594,-0.15527344,29.78125,9.6875,-44.9375,0.0,0.0,0.0
1695813816207,-0.98046875,0.07324219,-0.10253906,16.90625,-4.09375,-50.6875,0.0,0.0,0.0
1695813816228,-0.92285156,0.24023438,0.0078125,-18.75,-6.1875,7.5,0.0,0.0,0.0
1695813816283,-0.21875,-0.047851562,0.12988281,-21.625,-6.65625,-14.53125,0.0,0.0,0.0
1695813816330,-0.4716797,0.19433594,-0.09082031,9.1875,-27.1875,-53.53125,0.0,0.0,0.0
1695813816354,-2.0,0.6171875,-0.25195312,-39.375,22.75,34.84375,0.0,0.0,0.0
1695813816403,-0.9355469,-0.06933594,-0.3486328,29.90625,123.09375,89.53125,0.0,0.0,0.0
1695813816428,-1.6191406,-0.265625,-0.27246094,2.96875,144.5625,97.28125,-90.0,12.0625,-57.5
1695813816478,-1.7724609,0.08300781,-0.05078125,8.15625,105.40625,101.59375,0.0,0.0,0.0
1695813816529,-0.9423828,-0.11230469,-0.2607422,-20.34375,43.9375,81.21875,0.0,0.0,0.0
1695813816554,-0.83691406,0.23144531,-0.203125,21.71875,-22.96875,40.5,0.0,0.0,0.0
1695813816605,-0.58984375,0.07910156,-0.2548828,20.1875,-48.21875,-30.28125,0.0,0.0,0.0
1695813816629,-0.3359375,0.04296875,-0.25097656,44.90625,-48.90625,-47.875,0.0,0.0,0.0
1695813816679,-0.20996094,-0.036132812,-0.20800781,-14.46875,-89.84375,-72.71875,0.0,0.0,0.0
1695813816755,-0.42382812,-0.13476562,-0.020507812,-47.25,-75.8125,-96.28125,0.0,0.0,0.0
1695813816756,-1.1767578,0.06640625,-0.18164062,76.8125,-14.96875,-115.375,0.0,0.0,0.0
1695813816803,-1.0664062,0.21582031,-0.22265625,31.34375,-62.8125,-65.4375,0.0,0.0,0.0
1695813816829,-0.7402344,-0.0146484375,-0.2861328,2.90625,-86.5625,-36.8125,0.0,0.0,0.0
1695813816879,-1.1367188,0.20117188,-0.09667969,-17.90625,-27.59375,-23.40625,0.0,0.0,0.0
1695813816930,-1.7402344,-0.50097656,-0.5703125,35.15625,-78.09375,36.0625,-93.3125,9.1875,-51.9375
1695813816954,-1.6474609,0.12988281,0.31152344,-2.53125,0.21875,54.6875,0.0,0.0,0.0
1695813817003,-1.3759766,0.2265625,0.07714844,-31.8125,50.53125,68.34375,0.0,0.0,0.0
1695813817028,-1.0263672,-0.23828125,0.29492188,23.90625,0.53125,3.03125,0.0,0.0,0.0
1695813817079,-1.1455078,-0.07714844,0.0,5.96875,-57.875,-65.75,0.0,0.0,0.0
1695813817132,-1.1142578,0.24414062,0.0048828125,17.0,-33.9375,-23.28125,0.0,0.0,0.0
1695813817153,-0.6191406,-0.16503906,-0.10058594,26.0,-17.40625,-19.59375,0.0,0.0,0.0
1695813817203,-0.6513672,0.080078125,-0.16210938,41.71875,2.78125,-40.96875,0.0,0.0,0.0
1695813817231,-1.09375,0.0126953125,0.01953125,-19.53125,-22.90625,-5.15625,0.0,0.0,0.0
1695813817280,-0.40820312,0.19433594,-0.06640625,16.53125,13.0,26.46875,0.0,0.0,0.0
1695813817330,-0.41796875,-0.16699219,0.16308594,-18.5625,4.1875,-21.3125,0.0,0.0,0.0
1695813817354,-1.5253906,0.7792969,-0.45507812,-15.03125,13.34375,-7.28125,0.0,0.0,0.0
1695813817404,-0.7919922,0.11328125,0.0,15.0625,81.53125,73.65625,0.0,0.0,0.0
1695813817431,-1.2333984,-0.032226562,-0.15332031,-48.65625,102.78125,58.34375,-93.125,6.5,-53.75
1695813817479,-2.0,0.07910156,0.0126953125,-18.8125,120.46875,107.21875,0.0,0.0,0.0
1695813817529,-1.7294922,-0.1953125,-0.076171875,23.65625,110.65625,101.3125,0.0,0.0,0.0
1695813817554,-1.1347656,-0.016601562,-0.14160156,2.25,43.375,81.15625,0.0,0.0,0.0
1695813817604,-0.8935547,0.32910156,-0.14746094,-2.625,-11.6875,34.65625,0.0,0.0,0.0
1695813817631,-0.79296875,0.21582031,-0.07324219,21.40625,-17.21875,-8.6875,0.0,0.0,0.0
1695813817678,-0.4326172,-0.22753906,-0.32910156,41.0625,-27.53125,-35.15625,0.0,0.0,0.0
1695813817754,-0.34472656,-0.109375,-0.18847656,20.84375,-58.96875,-55.0625,0.0,0.0,0.0
1695813817755,-0.4560547,0.009765625,-0.05078125,-27.125,-75.75,-84.84375,0.0,0.0,0.0
1695813817803,-0.7011719,-0.044921875,-0.15332031,22.03125,-43.03125,-94.9375,0.0,0.0,0.0
1695813817833,-0.9111328,0.04296875,-0.0146484375,102.65625,-19.59375,-98.40625,0.0,0.0,0.0
1695813817878,-0.9199219,0.10253906,0.14257812,34.28125,-65.375,-73.75,0.0,0.0,0.0
1695813817928,-1.0302734,-0.16601562,-0.43945312,26.09375,-84.65625,-38.34375,-93.4375,3.625,-58.6875
1695813817955,-1.1425781,0.3466797,-0.3408203,21.59375,-30.53125,6.28125,0.0,0.0,0.0
1695813818004,-1.2636719,-0.72265625,-0.4951172,2.59375,-18.09375,62.53125,0.0,0.0,0.0
1695813818031,-1.0957031,0.41796875,0.63964844,-19.375,10.84375,40.8125,0.0,0.0,0.0
1695813818078,-1.6035156,1.0703125,0.15136719,-18.5625,16.78125,69.0,0.0,0.0,0.0
1695813818130,-1.0205078,-0.28515625,0.19238281,67.6875,12.9375,20.375,0.0,0.0,0.0
1695813818154,-1.3632812,-0.099609375,-0.017578125,32.625,-25.28125,-46.71875,0.0,0.0,0.0
1695813818205,-1.0371094,-0.11621094,-0.099609375,28.375,-30.90625,-31.875,0.0,0.0,0.0
1695813818228,-0.85253906,-0.016601562,0.022460938,8.53125,-29.0625,-58.0625,0.0,0.0,0.0
1695813818279,-0.8125,0.20214844,-0.1015625,33.3125,-3.25,-47.375,0.0,0.0,0.0
1695813818329,-0.75878906,-0.0107421875,0.06640625,3.28125,-26.1875,-41.34375,0.0,0.0,0.0
1695813818353,-0.6904297,0.064453125,0.09082031,11.34375,-16.5,-50.4375,0.0,0.0,0.0
1695813818404,-0.85253906,0.20410156,0.13867188,6.9375,-21.875,-56.65625,0.0,0.0,0.0
1695813818429,-0.8466797,0.1953125,0.017578125,10.40625,-2.59375,-51.53125,-96.4375,-2.8125,-51.6875
1695813818480,-0.9404297,0.25,0.18945312,12.625,26.71875,-66.1875,0.0,0.0,0.0
1695813818531,-1.1445312,0.49023438,-0.30273438,74.21875,62.71875,2.65625,0.0,0.0,0.0
1695813818554,-1.8007812,-0.119140625,0.10546875,46.0,151.21875,151.84375,0.0,0.0,0.0
1695813818605,-2.0,-0.036132812,0.68847656,208.46875,140.65625,158.96875,0.0,0.0,0.0
1695813818629,-1.8613281,-0.020507812,-0.22070312,14.375,27.03125,186.1875,0.0,0.0,0.0
1695813818679,-1.6464844,-0.20507812,0.06347656,123.9375,38.6875,163.6875,0.0,0.0,0.0
1695813818729,-0.9707031,-0.0107421875,0.2578125,199.25,25.625,117.90625,0.0,0.0,0.0
1695813818754,-0.6425781,-0.3359375,0.18359375,216.46875,12.25,55.78125,0.0,0.0,0.0
1695813818805,-0.46191406,-0.45117188,-0.12695312,240.78125,27.8125,35.8125,0.0,0.0,0.0
1695813818830,-0.24121094,-0.44140625,-0.15136719,92.21875,-3.3125,-1.46875,0.0,0.0,0.0
1695813818879,-1.1279297,-0.025390625,-0.22265625,-49.03125,-27.125,-42.3125,0.0,0.0,0.0
1695813818929,-0.6152344,0.56152344,-0.7109375,110.46875,50.78125,-66.59375,-87.125,-14.9375,-69.9375
1695813818953,-0.8310547,0.24414062,-0.42285156,123.6875,-12.90625,-11.78125,0.0,0.0,0.0
1695813819004,-0.78027344,0.23535156,-0.3857422,96.78125,-19.125,29.84375,0.0,0.0,0.0
1695813819055,-1.1513672,-0.17382812,-0.3955078,12.4375,-30.28125,20.1875,0.0,0.0,0.0
1695813819079,-1.8417969,0.0107421875,-0.6230469,-0.3125,-63.375,33.0,0.0,0.0,0.0
1695813819127,-0.69140625,-0.3388672,0.0029296875,-50.1875,-2.03125,27.75,0.0,0.0,0.0
1695813819153,-0.60058594,-0.39746094,0.5019531,-29.625,-60.5625,-36.34375,0.0,0.0,0.0
1695813819206,-1.8330078,0.4560547,0.35742188,51.125,-70.03125,-43.21875,0.0,0.0,0.0
1695813819229,-1.0664062,-0.16113281,-0.06933594,54.90625,-18.625,-24.5,0.0,0.0,0.0
1695813819280,-0.7890625,-0.2705078,-0.055664062,84.53125,-15.53125,-70.03125,0.0,0.0,0.0
1695813819330,-0.9199219,0.103515625,-0.15234375,61.5,-45.375,-54.53125,0.0,0.0,0.0
1695813819355,-0.87890625,-0.0029296875,-0.12597656,22.8125,-55.8125,-21.5625,0.0,0.0,0.0
1695813819404,-0.8574219,0.22363281,-0.125,16.21875,-32.65625,-14.25,0.0,0.0,0.0
1695813819429,-0.9189453,0.41796875,-0.27246094,36.0625,1.21875,17.0625,-92.25,-23.6875,-50.1875
1695813819480,-0.81152344,-0.13183594,-0.20019531,-10.5,-16.5625,65.53125,0.0,0.0,0.0
1695813819533,-0.3544922,-0.5810547,-0.1171875,28.5,45.875,43.25,0.0,0.0,0.0
1695813819555,-0.85839844,-0.10546875,0.08691406,-8.3125,-9.59375,-7.65625,0.0,0.0,0.0
1695813819604,-0.83984375,0.16992188,0.1171875,-46.28125,2.84375,21.65625,0.0,0.0,0.0
1695813819628,-0.9658203,0.27539062,-0.041992188,-54.15625,19.34375,13.0,0.0,0.0,0.0
1695813819679,-1.4804688,0.3828125,0.06933594,-18.03125,31.34375,0.03125,0.0,0.0,0.0
1695813819730,-1.6142578,0.31640625,-0.48828125,1.8125,88.71875,98.3125,0.0,0.0,0.0
1695813819755,-1.9179688,-0.50878906,-0.047851562,43.0625,138.40625,118.34375,0.0,0.0,0.0
1695813819807,-1.1884766,-0.38867188,-0.021484375,1.21875,101.375,75.53125,0.0,0.0,0.0
1695813819828,-0.7783203,-0.12207031,-0.07324219,-31.625,44.40625,37.53125,0.0,0.0,0.0
1695813819879,-0.71972656,0.17089844,-0.107421875,-19.71875,-13.125,3.09375,0.0,0.0,0.0
1695813819929,-0.52441406,-0.038085938,-0.19921875,6.625,-33.53125,-19.5,-91.375,-8.6875,-66.375
1695813819979,-0.36328125,-0.016601562,-0.19433594,19.5625,-57.9375,-68.1875,0.0,0.0,0.0
1695813820003,-0.41796875,0.11328125,-0.001953125,11.65625,-91.6875,-103.90625,0.0,0.0,0.0
1695813820029,-0.6875,0.15722656,-0.171875,22.25,-55.875,-106.9375,0.0,0.0,0.0
1695813820079,-1.1367188,0.005859375,-0.27148438,92.03125,-6.4375,-60.1875,0.0,0.0,0.0
1695813820130,-0.921875,0.033203125,-0.13769531,97.6875,-70.21875,-31.25,0.0,0.0,0.0
1695813820154,-0.7714844,0.14941406,-0.5,20.84375,-65.5,-7.71875,0.0,0.0,0.0
1695813820203,-1.4140625,-0.37695312,-0.4140625,-0.375,-26.6875,11.53125,0.0,0.0,0.0
1695813820230,-1.1210938,-1.0107422,-0.07714844,-78.75,-16.625,29.71875,0.0,0.0,0.0
1695813820279,-2.0,1.2324219,0.26757812,-117.8125,24.34375,135.53125,0.0,0.0,0.0
1695813820329,-0.7109375,-0.1015625,0.56640625,-1.1875,47.90625,46.25,0.0,0.0,0.0
1695813820354,-1.1132812,0.053710938,0.015625,56.1875,-46.03125,-62.34375,0.0,0.0,0.0
1695813820403,-1.3232422,0.36816406,-0.15820312,28.25,-24.4375,9.375,0.0,0.0,0.0
1695813820428,-0.8144531,-0.30859375,0.022460938,67.96875,-5.25,-12.71875,-94.625,-18.4375,-48.1875
1695813820481,-0.73339844,0.018554688,-0.056640625,26.15625,-18.8125,-45.0,0.0,0.0,0.0
1695813820529,-0.81347656,0.12890625,0.047851562,38.5,-27.84375,-48.46875,0.0,0.0,0.0
1695813820553,-0.8671875,0.21679688,-0.0390625,5.0625,-20.34375,-14.1875,0.0,0.0,0.0
1695813820615,-0.37695312,0.15722656,-0.017578125,6.5,-5.4375,-15.15625,0.0,0.0,0.0
1695813820629,-1.2480469,0.3154297,0.06640625,41.375,21.28125,-60.375,0.0,0.0,0.0
1695813820678,-0.98828125,0.22070312,-0.22167969,10.71875,51.875,9.375,0.0,0.0,0.0
1695813820731,-1.4404297,-0.064453125,-0.16113281,35.75,119.4375,89.34375,0.0,0.0,0.0
1695813820759,-1.9892578,-0.16992188,0.046875,41.0625,135.59375,110.875,0.0,0.0,0.0
1695813820803,-1.3886719,-0.24316406,-0.09765625,-4.03125,78.84375,98.0625,0.0,0.0,0.0
1695813820829,-1.0166016,-9.765625E-4,-0.052734375,9.03125,4.8125,80.25,0.0,0.0,0.0
1695813820879,-0.7402344,0.05859375,-0.038085938,49.90625,-1.40625,51.1875,0.0,0.0,0.0
1695813820955,-0.6191406,0.0029296875,-0.00390625,65.28125,-7.59375,15.3125,-95.6875,-14.0625,-58.25
1695813820956,-0.48828125,-0.2783203,-0.013671875,77.5,-42.3125,-13.03125,0.0,0.0,0.0
1695813821009,-0.390625,-0.24804688,-0.14257812,121.5625,-29.1875,-42.6875,0.0,0.0,0.0
1695813821029,-0.46972656,-0.21972656,-0.083984375,35.15625,-72.46875,-84.375,0.0,0.0,0.0
1695813821079,-1.0341797,-0.16210938,-0.20800781,44.46875,-51.53125,-115.4375,0.0,0.0,0.0
1695813821129,-1.3583984,0.2109375,-0.8066406,134.09375,-31.3125,-81.0,0.0,0.0,0.0
1695813821153,-0.8808594,0.3544922,-0.2734375,77.5,-30.46875,10.59375,0.0,0.0,0.0
1695813821203,-0.76660156,-0.15429688,-0.23144531,-22.71875,-44.15625,38.25,0.0,0.0,0.0
1695813821230,-1.1650391,-1.3222656,-0.7324219,6.21875,-89.125,35.09375,0.0,0.0,0.0
1695813821280,-2.0,0.8173828,0.6044922,29.40625,-68.75,-27.125,0.0,0.0,0.0
1695813821304,-0.72265625,-0.4189453,0.21191406,37.71875,100.03125,118.6875,0.0,0.0,0.0
1695813821356,-0.5263672,-0.65234375,0.7265625,101.3125,-50.375,-55.9375,0.0,0.0,0.0
1695813821406,-1.6513672,-0.18066406,0.16113281,37.875,-50.1875,-102.25,0.0,0.0,0.0
1695813821431,-0.8535156,-0.31445312,-0.171875,10.53125,-55.5625,-23.5625,-94.625,-25.9375,-32.625
1695813821479,-0.72753906,-0.13671875,0.03125,43.0625,-32.84375,-64.40625,0.0,0.0,0.0
1695813821503,-1.0097656,0.06347656,0.013671875,24.21875,-42.1875,-69.09375,0.0,0.0,0.0
1695813821557,-0.7470703,0.203125,0.21582031,-20.40625,-65.25,-64.59375,0.0,0.0,0.0
1695813821607,-0.9746094,0.24316406,-0.08300781,56.0,-28.21875,-45.25,0.0,0.0,0.0
1695813821629,-1.0810547,0.032226562,-0.20800781,39.0,7.125,-15.6875,0.0,0.0,0.0
1695813821680,-1.2197266,0.091796875,-0.0078125,-3.875,45.53125,15.65625,0.0,0.0,0.0
1695813821704,-1.2919922,0.4892578,-0.328125,71.53125,164.65625,87.75,0.0,0.0,0.0
1695813821754,-1.6435547,-0.6533203,0.2109375,11.28125,189.75,129.0,0.0,0.0,0.0
1695813821805,-1.0683594,-0.71972656,0.5419922,9.6875,115.09375,106.625,0.0,0.0,0.0
1695813821830,-1.3271484,0.22558594,0.20605469,2.4375,81.03125,130.65625,0.0,0.0,0.0
1695813821879,-1.0576172,-0.07324219,-0.13574219,-7.46875,-8.75,130.125,0.0,0.0,0.0
1695813821929,-1.0029297,0.23925781,0.059570312,88.375,15.0625,103.75,-98.375,-14.6875,-40.125
1695813821953,-0.6855469,0.0625,0.19433594,110.75,-4.34375,67.84375,0.0,0.0,0.0
1695813822003,-0.6425781,-0.20507812,-0.038085938,150.8125,-16.9375,23.0625,0.0,0.0,0.0
1695813822029,-0.5126953,-0.2529297,-0.28125,129.375,-4.84375,-6.53125,0.0,0.0,0.0
1695813822080,-0.5859375,-0.19042969,-0.32617188,57.25,-47.375,-38.46875,0.0,0.0,0.0
1695813822107,-0.9169922,0.24902344,-0.34277344,10.125,-71.625,-71.0625,0.0,0.0,0.0
1695813822154,-1.3056641,0.74902344,-0.09472656,0.28125,-43.09375,-54.21875,0.0,0.0,0.0
1695813822204,-1.4619141,0.10449219,0.37890625,-82.78125,-52.25,9.8125,0.0,0.0,0.0
1695813822229,-0.8544922,-0.107421875,-0.3330078,87.75,-11.25,-26.9375,0.0,0.0,0.0
1695813822279,-0.8359375,-0.16894531,0.10839844,106.5625,-17.34375,-29.875,0.0,0.0,0.0
1695813822303,-1.3642578,-0.1640625,0.171875,78.78125,-33.53125,-41.59375,0.0,0.0,0.0
1695813822354,-0.91503906,-0.17675781,-0.0078125,33.625,-18.625,-12.40625,0.0,0.0,0.0
1695813822403,-1.0527344,0.078125,0.032226562,31.28125,-24.96875,-33.03125,0.0,0.0,0.0
1695813822430,-0.99316406,-0.060546875,0.01171875,20.84375,-22.28125,-19.84375,-97.5,-18.6875,-23.0
1695813822479,-0.8222656,-0.049804688,-0.0146484375,22.6875,-14.84375,-10.21875,0.0,0.0,0.0
1695813822504,-0.9892578,0.25683594,0.001953125,20.90625,-8.625,-7.15625,0.0,0.0,0.0
1695813822555,-0.76464844,0.001953125,-0.10546875,7.96875,-11.25,19.21875,0.0,0.0,0.0
1695813822606,-0.5878906,0.09375,-0.11328125,21.84375,12.5,12.25,0.0,0.0,0.0
1695813822629,-0.66796875,-0.111328125,-0.04296875,-26.375,16.28125,33.0625,0.0,0.0,0.0
1695813822680,-1.1210938,0.28710938,0.08886719,-2.15625,-18.21875,-13.03125,0.0,0.0,0.0
1695813822704,-0.67285156,0.14257812,0.13574219,-41.9375,16.90625,27.9375,0.0,0.0,0.0
1695813822754,-0.8808594,0.015625,0.20410156,17.1875,26.09375,-5.875,0.0,0.0,0.0
1695813822804,-1.171875,0.4111328,-0.07714844,5.46875,38.625,-1.71875,0.0,0.0,0.0
1695813822829,-1.8339844,-0.16699219,-0.15234375,-0.9375,67.6875,60.21875,0.0,0.0,0.0
1695813822879,-1.5625,-0.32617188,-0.19433594,-3.75,106.0,85.8125,0.0,0.0,0.0
1695813822929,-1.6777344,-0.27734375,-0.10546875,-18.15625,96.84375,84.15625,-100.5,-12.125,-31.125
1695813822954,-1.0859375,0.17285156,-0.125,-34.0625,61.5,76.8125,0.0,0.0,0.0
1695813823004,-0.60253906,0.19140625,-0.048828125,-5.4375,33.84375,49.3125,0.0,0.0,0.0
1695813823030,-0.6230469,0.18457031,-0.095703125,33.6875,22.09375,21.96875,0.0,0.0,0.0
1695813823079,-0.40234375,-0.08105469,-0.0625,39.40625,2.0625,-5.875,0.0,0.0,0.0
1695813823105,-0.32714844,-0.119140625,-0.19335938,24.53125,-29.625,-38.53125,0.0,0.0,0.0
1695813823153,-0.43652344,0.021484375,-0.16992188,-5.3125,-73.1875,-82.78125,0.0,0.0,0.0
1695813823203,-0.5078125,0.17871094,0.021484375,-48.71875,-83.21875,-99.0625,0.0,0.0,0.0
1695813823229,-0.9921875,0.24121094,-0.3173828,27.15625,-38.09375,-75.6875,0.0,0.0,0.0
1695813823281,-1.0908203,0.26660156,-0.1171875,92.75,-7.28125,-54.09375,0.0,0.0,0.0
1695813823305,-0.8076172,-0.00390625,-0.06933594,34.40625,-84.65625,-25.71875,0.0,0.0,0.0
1695813823378,-1.6083984,-0.08203125,-0.7421875,-9.65625,-61.78125,-24.25,0.0,0.0,0.0
1695813823404,-1.6357422,-0.56152344,-0.5498047,-35.40625,-34.125,47.21875,0.0,0.0,0.0
1695813823429,-1.0605469,0.040039062,1.0517578,-29.9375,43.625,53.75,-98.6875,-14.1875,-23.4375
1695813823479,-1.78125,0.33789062,0.06738281,-32.125,-17.40625,20.3125,0.0,0.0,0.0
1695813823506,-1.265625,-0.13085938,-0.01171875,18.78125,-19.90625,21.28125,0.0,0.0,0.0
1695813823555,-1.0146484,-0.38085938,0.15039062,34.84375,-45.0625,-48.0625,0.0,0.0,0.0
1695813823607,-1.0566406,0.009765625,-0.11621094,21.65625,-35.40625,-66.125,0.0,0.0,0.0
1695813823630,-0.81347656,0.030273438,-0.052734375,-16.4375,-33.28125,-48.0625,0.0,0.0,0.0
1695813823678,-0.859375,0.24023438,-0.061523438,9.4375,-13.1875,-33.15625,0.0,0.0,0.0
1695813823703,-0.6347656,0.20410156,-0.18359375,0.71875,-5.5625,7.125,0.0,0.0,0.0
1695813823754,-0.56152344,-0.015625,0.20117188,-14.65625,20.0625,29.78125,0.0,0.0,0.0
1695813823803,-0.56347656,0.07421875,0.013671875,13.53125,25.375,4.8125,0.0,0.0,0.0
1695813823828,-0.7988281,0.0048828125,0.06542969,-45.84375,40.9375,10.59375,0.0,0.0,0.0
1695813823880,-0.5917969,-0.09082031,0.4921875,-32.375,52.0625,15.625,0.0,0.0,0.0
1695813823931,-1.6826172,0.92578125,-0.5390625,30.3125,54.125,-19.0625,-97.0625,-16.9375,-26.4375
1695813823955,-2.0,0.1640625,-0.49902344,21.09375,125.59375,136.71875,0.0,0.0,0.0
1695813824005,-1.6787109,-0.70703125,-0.25683594,60.15625,166.0625,72.625,0.0,0.0,0.0
1695813824030,-1.2421875,-0.11230469,-0.17382812,-43.09375,81.03125,74.09375,0.0,0.0,0.0
1695813824081,-0.93359375,0.07324219,-0.14550781,-42.4375,20.96875,46.75,0.0,0.0,0.0
1695813824106,-0.93652344,0.20117188,-0.17578125,-2.46875,-20.15625,20.84375,0.0,0.0,0.0
1695813824155,-0.6855469,0.015625,-0.15625,49.375,-12.40625,16.9375,0.0,0.0,0.0
1695813824204,-0.37402344,-0.2861328,-0.22949219,45.09375,-48.0,-27.0,0.0,0.0,0.0
1695813824229,-0.4326172,0.0107421875,-0.12792969,13.46875,-73.3125,-52.1875,0.0,0.0,0.0
1695813824279,-0.3828125,-0.0078125,-0.005859375,-50.1875,-94.125,-72.03125,0.0,0.0,0.0
1695813824304,-0.72265625,-0.046875,-0.19824219,-44.21875,-58.0,-90.59375,0.0,0.0,0.0
1695813824354,-0.99609375,0.041992188,-0.18652344,42.90625,-18.21875,-76.8125,0.0,0.0,0.0
1695813824403,-1.0244141,0.020507812,-0.18847656,65.84375,-36.6875,-39.5,0.0,0.0,0.0
1695813824429,-0.8564453,-0.026367188,-0.46777344,-29.75,-72.34375,-31.09375,-95.875,-14.9375,-27.6875
1695813824479,-1.4072266,0.62890625,0.3330078,-124.40625,-57.625,23.84375,0.0,0.0,0.0
1695813824503,-2.0,-1.4628906,-1.0224609,-11.375,-63.25,68.28125,0.0,0.0,0.0
1695813824556,-1.2753906,0.16894531,0.15527344,15.0625,25.1875,62.65625,0.0,0.0,0.0
1695813824604,-1.5009766,0.07421875,0.35839844,11.21875,-7.15625,1.03125,0.0,0.0,0.0
1695813824629,-1.0566406,-0.21679688,0.11328125,19.40625,-29.1875,-14.3125,0.0,0.0,0.0
1695813824683,-1.0927734,-0.3095703,0.13085938,24.03125,-56.40625,-66.78125,0.0,0.0,0.0
1695813824704,-0.98046875,-0.0625,-0.06933594,-0.4375,-46.15625,-69.78125,0.0,0.0,0.0
1695813824754,-0.72265625,0.09375,-0.09863281,-23.875,-34.125,-52.5,0.0,0.0,0.0
1695813824804,-0.9189453,0.40234375,-0.037109375,4.6875,-2.09375,-21.25,0.0,0.0,0.0
1695813824830,-0.84472656,0.3515625,-0.328125,-12.53125,1.09375,33.3125,0.0,0.0,0.0
1695813824882,-0.6230469,0.2626953,-0.009765625,40.75,32.15625,57.1875,0.0,0.0,0.0
1695813824907,-0.47558594,-0.09277344,0.04296875,32.5625,35.625,29.59375,-94.375,-16.75,-18.9375
1695813824954,-0.7792969,-0.36816406,0.21289062,9.5625,30.625,10.25,0.0,0.0,0.0
1695813825004,-0.9863281,0.31933594,-0.17578125,-15.59375,51.375,2.5,0.0,0.0,0.0
1695813825029,-1.0068359,0.080078125,-0.2734375,-66.84375,52.46875,30.0625,0.0,0.0,0.0
1695813825080,-2.0,0.13867188,-0.28710938,-53.84375,86.28125,121.25,0.0,0.0,0.0
1695813825104,-1.703125,-0.34960938,-0.0107421875,-38.21875,138.90625,117.28125,0.0,0.0,0.0
1695813825163,-1.3466797,-0.3076172,-0.026367188,-30.21875,104.125,82.375,0.0,0.0,0.0
1695813825203,-0.9736328,0.36328125,-0.024414062,-30.59375,36.90625,56.8125,0.0,0.0,0.0
1695813825234,-0.74316406,0.33398438,-0.091796875,-15.9375,-10.40625,5.90625,0.0,0.0,0.0
1695813825278,-0.52441406,0.10058594,-0.08984375,57.40625,-1.25,-22.84375,0.0,0.0,0.0
1695813825303,-0.35546875,-0.32910156,-0.171875,70.65625,-18.21875,-59.09375,0.0,0.0,0.0
1695813825353,-0.2841797,-0.09765625,-0.10839844,20.4375,-74.46875,-89.96875,0.0,0.0,0.0
1695813825403,-0.4423828,0.09863281,-0.025390625,-34.5625,-83.5,-110.6875,0.0,0.0,0.0
1695813825427,-1.0996094,0.10253906,-0.32226562,-3.0,-52.4375,-89.0625,-97.8125,-13.75,-32.625
1695813825478,-1.1708984,0.1796875,-0.0048828125,60.71875,-14.84375,-63.625,0.0,0.0,0.0
1695813825504,-0.7783203,-0.041992188,-0.3173828,-4.46875,-97.1875,-22.90625,0.0,0.0,0.0
1695813825558,-1.1708984,0.27148438,0.2265625,-78.09375,-49.5625,5.78125,0.0,0.0,0.0
1695813825604,-1.6992188,-0.5683594,-0.40234375,68.53125,-43.03125,7.0,0.0,0.0,0.0
1695813825630,-2.0,1.6289062,0.5859375,8.90625,31.90625,138.21875,0.0,0.0,0.0
1695813825679,-0.43164062,-1.1308594,0.7207031,-9.0625,47.03125,57.84375,0.0,0.0,0.0
1695813825706,-0.9316406,-0.44335938,0.0107421875,70.59375,-42.875,-96.4375,0.0,0.0,0.0
1695813825754,-1.7783203,0.33398438,0.059570312,-46.84375,-67.875,-56.09375,0.0,0.0,0.0
1695813825806,-0.71777344,0.034179688,-0.09472656,-14.25,-9.28125,4.1875,0.0,0.0,0.0
1695813825834,-0.66503906,0.0048828125,0.030273438,17.0625,3.03125,-28.09375,0.0,0.0,0.0
1695813825879,-0.63671875,0.3701172,0.0107421875,62.53125,-11.0625,-8.625,0.0,0.0,0.0
1695813825905,-0.3330078,-0.07714844,0.2783203,30.125,-30.59375,-4.09375,-93.875,-16.9375,-19.875
1695813825953,-1.4228516,0.40039062,-0.41796875,9.5,10.84375,-20.09375,0.0,0.0,0.0
1695813826039,-0.47265625,-0.21191406,0.095703125,-42.375,31.0,51.0,0.0,0.0,0.0
1695813826045,-0.71191406,0.3125,-0.05078125,-16.8125,17.125,0.96875,0.0,0.0,0.0
1695813826082,-1.8603516,0.39453125,0.022460938,-20.875,66.09375,16.78125,0.0,0.0,0.0
1695813826103,-1.6806641,-0.4169922,-0.27929688,-8.1875,124.9375,83.59375,0.0,0.0,0.0
1695813826153,-1.3164062,-0.37402344,-0.06347656,4.6875,151.46875,60.40625,0.0,0.0,0.0
1695813826204,-1.5693359,-0.15820312,-0.05859375,-18.375,92.40625,71.6875,0.0,0.0,0.0
1695813826228,-1.046875,0.171875,-0.040039062,-45.71875,32.40625,55.15625,0.0,0.0,0.0
1695813826280,-0.6191406,0.15234375,-0.064453125,2.96875,-3.875,22.09375,0.0,0.0,0.0
1695813826307,-0.37402344,-0.15136719,-0.107421875,46.5,-8.375,-25.65625,0.0,0.0,0.0
1695813826355,-0.36132812,-0.23632812,-0.16503906,37.8125,-40.1875,-62.09375,0.0,0.0,0.0
1695813826405,-0.36328125,-0.059570312,-0.13867188,-3.625,-78.4375,-96.34375,0.0,0.0,0.0
1695813826430,-0.6201172,0.28222656,-0.12695312,9.75,-52.875,-114.625,-100.5,-12.875,-31.125
1695813826479,-1.3330078,0.4638672,-0.21289062,80.1875,-9.59375,-67.71875,0.0,0.0,0.0
1695813826505,-0.98046875,0.11328125,-0.22558594,78.125,-35.0625,-18.5625,0.0,0.0,0.0
1695813826553,-0.9980469,-0.23828125,-0.625,6.15625,-79.46875,-2.59375,0.0,0.0,0.0
1695813826609,-1.0214844,-0.203125,0.33496094,-107.875,-3.90625,39.21875,0.0,0.0,0.0
1695813826630,-1.5654297,-0.095703125,0.22070312,-4.71875,49.96875,35.375,0.0,0.0,0.0
1695813826678,-1.5585938,0.7373047,-1.0605469,-166.53125,18.90625,167.21875,0.0,0.0,0.0
1695813826703,-0.67285156,-0.9375,0.6513672,66.28125,22.8125,8.59375,0.0,0.0,0.0
1695813826756,-1.5273438,0.040039062,-0.19921875,10.40625,-25.46875,-97.4375,0.0,0.0,0.0
1695813826803,-0.91503906,-0.0234375,-0.13574219,6.875,-26.875,0.03125,0.0,0.0,0.0
1695813826828,-0.6748047,-0.0107421875,-9.765625E-4,71.21875,-25.96875,-56.34375,0.0,0.0,0.0
1695813826879,-1.2509766,0.22949219,-0.12988281,46.875,-5.9375,-64.65625,0.0,0.0,0.0
1695813826903,-0.8076172,-0.09472656,0.03515625,12.0,-20.78125,-26.125,-93.0,-16.4375,-20.3125
1695813826955,-0.61328125,0.30273438,0.05078125,37.71875,2.96875,-49.8125,0.0,0.0,0.0
1695813827006,-0.45898438,0.037109375,0.24414062,26.53125,6.6875,-38.15625,0.0,0.0,0.0
1695813827029,-0.88671875,0.08300781,0.034179688,49.96875,-19.25,-60.25,0.0,0.0,0.0
1695813827082,-0.87597656,0.3671875,-0.07421875,14.625,1.6875,-38.21875,0.0,0.0,0.0
1695813827103,-0.9970703,0.2998047,-0.028320312,41.1875,44.65625,-30.71875,0.0,0.0,0.0
1695813827153,-1.4453125,0.30566406,-0.3798828,79.03125,108.0625,59.625,0.0,0.0,0.0
1695813827204,-1.5419922,-0.21679688,0.080078125,66.875,149.46875,145.5,0.0,0.0,0.0
1695813827229,-1.7949219,-0.34472656,0.5361328,56.0,97.53125,146.78125,0.0,0.0,0.0
1695813827279,-1.3955078,0.26171875,0.10644531,96.40625,29.21875,166.90625,0.0,0.0,0.0
1695813827303,-1.640625,0.115234375,0.17285156,94.40625,-0.25,170.46875,0.0,0.0,0.0
1695813827355,-1.3408203,0.49414062,0.24511719,191.40625,-50.0,122.40625,0.0,0.0,0.0
1695813827405,-1.0566406,-0.43652344,0.055664062,241.5625,-57.15625,61.3125,0.0,0.0,0.0
1695813827429,-0.74609375,-0.33203125,-0.2626953,262.5625,-22.40625,51.3125,-95.6875,1.8125,-33.375
1695813827480,-0.56347656,-0.3408203,-0.3173828,145.125,-25.71875,19.46875,0.0,0.0,0.0
1695813827504,-0.70703125,-0.26953125,-0.4189453,80.78125,-8.8125,-1.40625,0.0,0.0,0.0
1695813827555,-0.56152344,0.16210938,-0.2685547,60.34375,6.03125,-14.40625,0.0,0.0,0.0
1695813827605,-0.6621094,0.40722656,-0.2734375,28.78125,-15.03125,-12.15625,0.0,0.0,0.0
1695813827628,-1.0976562,0.50097656,0.20019531,66.4375,-9.0625,-40.46875,0.0,0.0,0.0
1695813827680,-0.9707031,0.56640625,0.10058594,22.625,-78.5625,-5.875,0.0,0.0,0.0
1695813827704,-2.0,0.03515625,-0.56933594,52.71875,-71.375,10.0625,0.0,0.0,0.0
1695813827754,-0.58984375,-0.22851562,-0.16308594,45.875,-32.125,49.96875,0.0,0.0,0.0
1695813827830,-0.38867188,-0.9238281,0.296875,82.875,-55.75,-40.40625,0.0,0.0,0.0
1695813827831,-1.8857422,0.13085938,0.053710938,7.625,-54.15625,-67.71875,0.0,0.0,0.0
1695813827879,-1.1308594,0.041015625,-0.17089844,2.375,-16.5625,5.53125,0.0,0.0,0.0
1695813827903,-0.8857422,0.053710938,0.08300781,43.6875,-23.875,-49.28125,-94.8125,6.0625,-29.0
1695813827955,-1.0097656,0.119140625,-0.037109375,51.75,-35.46875,-41.15625,0.0,0.0,0.0
1695813828005,-0.8857422,0.05078125,-0.07910156,27.375,-21.5,-20.875,0.0,0.0,0.0
1695813828028,-0.7861328,0.11425781,-0.1796875,21.21875,-14.46875,-7.34375,0.0,0.0,0.0
1695813828078,-0.85058594,0.17285156,-0.17578125,15.0,9.125,14.875,0.0,0.0,0.0
1695813828105,-0.62109375,-0.26464844,-0.053710938,2.96875,6.21875,22.875,0.0,0.0,0.0
1695813828155,-0.73339844,0.15136719,0.00390625,12.4375,-2.09375,-3.3125,0.0,0.0,0.0
1695813828206,-0.7216797,-0.015625,0.026367188,-16.875,-3.96875,8.28125,0.0,0.0,0.0
1695813828229,-1.0292969,0.140625,-0.0859375,15.5625,12.875,3.46875,0.0,0.0,0.0
1695813828278,-0.80371094,0.14257812,0.013671875,-32.125,14.4375,0.34375,0.0,0.0,0.0
1695813828304,-1.0556641,0.12988281,-9.765625E-4,-31.625,35.25,5.78125,0.0,0.0,0.0
1695813828354,-1.8476562,0.14257812,-0.18261719,-44.5625,51.9375,85.9375,0.0,0.0,0.0
1695813828403,-1.9824219,-0.12109375,-0.1953125,-7.71875,99.65625,136.40625,0.0,0.0,0.0
1695813828429,-1.5283203,-0.36621094,-0.125,-15.28125,84.09375,106.3125,-92.5625,12.8125,-33.1875
1695813828478,-1.0947266,0.18164062,-0.08886719,-52.8125,46.875,70.125,0.0,0.0,0.0
1695813828503,-1.0048828,0.36914062,-0.15625,-18.8125,32.09375,48.25,0.0,0.0,0.0
1695813828553,-0.69921875,0.23242188,-0.1328125,25.625,20.3125,18.71875,0.0,0.0,0.0
1695813828604,-0.44335938,-0.12109375,-0.115234375,61.5625,11.15625,-19.25,0.0,0.0,0.0
1695813828629,-0.2939453,-0.16015625,-0.08203125,57.53125,-6.1875,-50.78125,0.0,0.0,0.0
1695813828681,-0.36035156,-0.072265625,-0.07910156,-8.75,-42.875,-70.5,0.0,0.0,0.0
1695813828706,-0.44335938,-0.041992188,-0.0703125,-96.5,-93.71875,-84.65625,0.0,0.0,0.0
1695813828755,-0.6425781,0.18945312,-0.057617188,-53.0625,-66.53125,-103.28125,0.0,0.0,0.0
1695813828805,-1.2158203,0.36523438,-0.11035156,69.1875,-23.09375,-92.1875,0.0,0.0,0.0
1695813828829,-1.0273438,0.36914062,-0.19921875,83.65625,-25.84375,-47.9375,0.0,0.0,0.0
1695813828879,-0.9091797,0.026367188,-0.3779297,-34.875,-85.59375,2.3125,0.0,0.0,0.0
1695813828905,-0.8847656,-0.043945312,-0.01953125,-104.5625,-45.59375,16.21875,-92.125,8.3125,-25.4375
1695813828953,-1.9667969,-0.16308594,-0.2763672,42.90625,23.125,-1.0,0.0,0.0,0.0
1695813829005,-1.9628906,0.3623047,-0.18261719,-85.78125,8.65625,105.28125,0.0,0.0,0.0
1695813829055,-0.76464844,-0.30859375,0.45703125,-16.125,15.125,45.09375,0.0,0.0,0.0
1695813829079,-1.6875,-0.047851562,0.1171875,63.78125,-59.84375,-63.0,0.0,0.0,0.0
1695813829105,-0.8886719,-0.0048828125,-0.0390625,6.09375,-42.6875,-29.5,0.0,0.0,0.0
1695813829156,-1.0166016,0.07714844,-0.057617188,39.96875,-14.125,-29.5625,0.0,0.0,0.0
1695813829205,-0.74609375,0.033203125,-0.051757812,11.65625,-17.53125,-23.625,0.0,0.0,0.0
1695813829228,-0.62109375,-0.09082031,-0.009765625,38.1875,-0.5625,-35.0,0.0,0.0,0.0
1695813829278,-0.8779297,0.16015625,0.017578125,4.6875,15.65625,-14.65625,0.0,0.0,0.0
1695813829303,-0.52246094,-0.05859375,0.18457031,-27.84375,17.6875,-1.3125,0.0,0.0,0.0
1695813829354,-0.6201172,0.21386719,0.072265625,3.65625,15.1875,-25.78125,0.0,0.0,0.0
1695813829404,-1.390625,0.5722656,0.028320312,5.90625,10.1875,6.34375,0.0,0.0,0.0
1695813829429,-1.0478516,0.45996094,-0.22558594,46.1875,66.5625,37.65625,-91.5,5.5625,-23.1875
1695813829480,-1.6015625,-0.2783203,-0.22949219,23.0,110.09375,82.125,0.0,0.0,0.0
1695813829504,-1.1757812,-0.33496094,-0.14941406,-3.375,139.625,61.5,0.0,0.0,0.0
1695813829554,-1.9589844,0.4638672,0.13964844,37.03125,97.34375,100.09375,0.0,0.0,0.0
1695813829604,-1.2148438,0.055664062,-0.048828125,-3.125,31.65625,96.84375,0.0,0.0,0.0
1695813829632,-0.9482422,0.17382812,-0.020507812,37.71875,-44.875,59.875,0.0,0.0,0.0
1695813829683,-0.640625,-0.055664062,-0.06542969,73.28125,-18.375,0.71875,0.0,0.0,0.0
1695813829705,-0.4794922,-0.1484375,-0.07324219,99.40625,-43.40625,-21.8125,0.0,0.0,0.0
1695813829754,-0.2783203,-0.10253906,-0.25,106.1875,-67.21875,-32.25,0.0,0.0,0.0
1695813829804,-0.34472656,-0.13476562,-0.0625,39.65625,-73.625,-78.75,0.0,0.0,0.0
1695813829830,-1.1748047,-0.11816406,-0.23632812,53.875,3.21875,-116.84375,0.0,0.0,0.0
1695813829877,-1.3134766,0.4033203,-0.4169922,184.1875,-1.34375,-85.03125,0.0,0.0,0.0
1695813829903,-0.8173828,0.24804688,-0.39453125,59.1875,-37.84375,-10.9375,-93.3125,10.25,-36.9375
1695813829953,-0.6738281,-0.2919922,-0.35253906,-13.4375,-39.8125,32.15625,0.0,0.0,0.0
1695813830006,-1.0097656,-0.54296875,0.18652344,6.46875,19.625,4.5625,0.0,0.0,0.0
1695813830028,-0.8876953,0.12988281,0.98339844,-56.90625,-2.21875,14.28125,0.0,0.0,0.0
1695813830080,-2.0,2.0,-0.79003906,-106.875,-91.875,148.65625,0.0,0.0,0.0
1695813830103,-1.1904297,-1.0068359,0.546875,123.09375,21.84375,66.875,0.0,0.0,0.0
1695813830154,-0.81933594,-0.80078125,0.12890625,137.0,-51.96875,-94.5625,0.0,0.0,0.0
1695813830205,-1.4042969,0.52441406,0.14550781,63.34375,-72.21875,-52.5625,0.0,0.0,0.0
1695813830230,-0.78125,-0.23925781,0.16210938,42.71875,-41.03125,-42.0,0.0,0.0,0.0
1695813830278,-0.8154297,-0.015625,0.00390625,77.9375,-39.9375,-88.03125,0.0,0.0,0.0
1695813830305,-0.984375,-0.03515625,0.17089844,58.46875,-67.21875,-80.28125,0.0,0.0,0.0
1695813830354,-0.7402344,0.009765625,0.087890625,34.15625,-56.96875,-69.90625,0.0,0.0,0.0
1695813830404,-1.0488281,0.3017578,0.046875,38.0625,-29.0,-51.03125,0.0,0.0,0.0
1695813830429,-1.0283203,0.10058594,0.015625,51.3125,-8.5625,-25.65625,-92.25,2.3125,-25.875
1695813830480,-1.1875,0.028320312,9.765625E-4,51.4375,36.59375,-2.8125,0.0,0.0,0.0
1695813830504,-1.2060547,0.22070312,0.15820312,23.59375,71.40625,45.15625,0.0,0.0,0.0
1695813830553,-1.3457031,-0.3935547,-0.28125,53.21875,161.78125,102.40625,0.0,0.0,0.0
1695813830629,-1.1835938,-0.4716797,0.18457031,38.75,164.90625,117.53125,0.0,0.0,0.0
1695813830631,-1.2851562,-0.40039062,0.44921875,22.5,110.28125,112.53125,0.0,0.0,0.0
1695813830679,-1.3242188,0.27148438,-0.009765625,-14.125,53.09375,122.25,0.0,0.0,0.0
1695813830703,-0.98339844,-0.07910156,-0.08496094,29.28125,20.75,111.625,0.0,0.0,0.0
1695813830755,-0.8466797,0.22851562,0.08496094,85.4375,5.59375,93.375,0.0,0.0,0.0
1695813830807,-0.86328125,-0.038085938,0.053710938,121.3125,-3.0625,56.1875,0.0,0.0,0.0
1695813830830,-0.58691406,-0.29003906,-0.14160156,121.125,2.5625,27.28125,0.0,0.0,0.0
1695813830879,-0.59472656,-0.14453125,-0.3017578,62.96875,-16.75,0.65625,0.0,0.0,0.0
1695813830904,-0.62402344,0.08300781,-0.2919922,18.90625,-59.53125,-36.875,-87.875,18.625,-59.9375
1695813830955,-0.9433594,0.5957031,-0.13769531,1.28125,-64.34375,-64.71875,0.0,0.0,0.0
1695813831005,-0.95996094,0.41601562,-0.016601562,32.34375,-22.46875,-43.34375,0.0,0.0,0.0
1695813831029,-0.81152344,-0.09375,0.037109375,-6.375,-51.96875,-22.84375,0.0,0.0,0.0
1695813831079,-1.6142578,-0.24902344,-0.45507812,97.34375,-37.0,-67.21875,0.0,0.0,0.0
1695813831103,-1.0429688,0.05078125,-9.765625E-4,63.40625,-28.75,17.0625,0.0,0.0,0.0
1695813831155,-0.99121094,-0.53222656,0.10546875,30.1875,-10.28125,-23.875,0.0,0.0,0.0
1695813831204,-1.1992188,0.107421875,0.20605469,58.21875,-23.6875,-60.5625,0.0,0.0,0.0
1695813831229,-1.1162109,0.19628906,0.032226562,31.53125,-48.125,-34.875,0.0,0.0,0.0
1695813831279,-0.8613281,-0.15625,-0.0146484375,40.4375,-32.5625,-30.84375,0.0,0.0,0.0
1695813831303,-0.9199219,-0.12792969,0.0126953125,4.1875,-34.5,-42.5625,0.0,0.0,0.0
1695813831354,-0.91796875,0.21582031,-0.11621094,-24.375,-20.40625,-32.5,0.0,0.0,0.0
1695813831411,-0.8125,0.2705078,-0.19238281,-25.53125,-13.4375,32.9375,0.0,0.0,0.0
1695813831429,-0.5830078,0.056640625,0.015625,15.65625,33.6875,64.125,-95.6875,6.1875,-43.6875
1695813831480,-0.63378906,-0.04296875,0.22167969,36.59375,54.5625,38.75,0.0,0.0,0.0
1695813831505,-0.80859375,-0.26464844,0.16699219,-2.15625,8.78125,15.5625,0.0,0.0,0.0
1695813831554,-0.7890625,0.14941406,-0.125,-8.3125,-2.6875,19.46875,0.0,0.0,0.0
1695813831603,-1.1904297,0.27246094,0.078125,-23.875,18.46875,16.34375,0.0,0.0,0.0
1695813831630,-0.93847656,0.4873047,-0.47558594,-23.03125,57.59375,20.75,0.0,0.0,0.0
1695813831681,-1.8046875,-0.16015625,-0.20507812,-25.90625,88.3125,104.84375,0.0,0.0,0.0
1695813831707,-1.5371094,-0.14257812,-0.171875,-5.8125,142.0625,95.75,0.0,0.0,0.0
1695813831755,-2.0,0.09375,-0.01953125,7.25,87.09375,97.34375,0.0,0.0,0.0
1695813831806,-0.8613281,0.025390625,-0.046875,-0.375,42.53125,67.6875,0.0,0.0,0.0
1695813831829,-0.5107422,0.23339844,-0.08203125,51.6875,-3.5,-3.5,0.0,0.0,0.0
1695813831879,-0.44335938,-0.053710938,-0.111328125,49.53125,-37.25,-51.40625,0.0,0.0,0.0
1695813831904,-0.2841797,-0.20703125,-0.22265625,49.71875,-53.25,-68.75,-84.875,15.5,-63.1875
1695813831954,-0.33007812,-0.047851562,-0.07910156,29.71875,-78.4375,-90.46875,0.0,0.0,0.0
1695813832006,-0.62109375,0.034179688,0.034179688,6.625,-59.53125,-112.0625,0.0,0.0,0.0
1695813832030,-0.92578125,0.20898438,-0.13867188,45.53125,-23.625,-74.0,0.0,0.0,0.0
1695813832080,-1.1298828,-0.0390625,-0.3310547,31.78125,-66.25,-34.4375,0.0,0.0,0.0
1695813832104,-0.9746094,0.056640625,-0.41503906,39.65625,-34.1875,-5.625,0.0,0.0,0.0
1695813832155,-1.1367188,-0.28808594,-0.42382812,-16.8125,-37.96875,6.9375,0.0,0.0,0.0
1695813832208,-1.3330078,-0.27929688,0.018554688,-135.34375,-16.625,46.875,0.0,0.0,0.0
1695813832229,-1.4101562,0.21679688,0.5654297,-80.875,44.46875,40.75,0.0,0.0,0.0
1695813832278,-1.3974609,0.46289062,-0.30371094,-87.40625,21.53125,72.25,0.0,0.0,0.0
1695813832303,-1.3125,-0.12988281,0.36621094,20.4375,12.625,9.125,0.0,0.0,0.0
1695813832355,-1.2373047,0.1875,-0.1953125,7.4375,-41.53125,-16.25,0.0,0.0,0.0
1695813832407,-0.8535156,-0.016601562,-0.01953125,11.09375,-18.25,-12.90625,0.0,0.0,0.0
1695813832430,-1.0029297,0.19726562,-0.09375,35.09375,-8.375,-46.46875,-90.3125,10.8125,-47.9375
1695813832483,-0.7480469,0.11621094,-0.041992188,21.84375,-18.3125,-5.4375,0.0,0.0,0.0
1695813832506,-0.57421875,-0.09472656,0.00390625,16.59375,-7.03125,4.1875,0.0,0.0,0.0
1695813832554,-0.86816406,0.07128906,-0.10546875,11.40625,9.25,-12.71875,0.0,0.0,0.0
1695813832630,-0.7207031,0.0126953125,-0.18261719,-29.25,28.0,-3.0625,0.0,0.0,0.0
1695813832631,-0.7324219,0.034179688,9.765625E-4,-83.28125,60.46875,9.03125,0.0,0.0,0.0
1695813832679,-1.2998047,0.5859375,-0.0107421875,-23.15625,76.65625,7.8125,0.0,0.0,0.0
1695813832704,-1.7167969,0.18066406,-0.38671875,11.59375,118.6875,118.03125,0.0,0.0,0.0
1695813832754,-2.0,-0.31054688,-0.11035156,53.75,146.84375,110.15625,0.0,0.0,0.0
1695813832803,-1.4111328,0.032226562,-0.18945312,21.40625,92.5625,91.84375,0.0,0.0,0.0
1695813832829,-0.6113281,0.026367188,-0.24609375,-1.34375,14.5625,44.71875,0.0,0.0,0.0
1695813832879,-0.8066406,0.14453125,-0.19921875,9.875,-32.25,6.34375,0.0,0.0,0.0
1695813832905,-0.484375,-0.18457031,-0.21875,34.59375,-39.625,-16.9375,-81.125,16.6875,-65.3125
1695813832955,-0.3330078,-0.2421875,-0.12402344,23.90625,-65.6875,-45.5,0.0,0.0,0.0
1695813832980,-0.31933594,0.048828125,-0.020507812,-10.625,-106.03125,-64.40625,0.0,0.0,0.0
1695813833029,-0.43652344,0.041992188,0.04296875,-28.46875,-95.09375,-86.9375,0.0,0.0,0.0
1695813833079,-0.89453125,-0.0087890625,-0.2548828,35.5,-35.0,-91.6875,0.0,0.0,0.0
1695813833104,-1.0996094,0.06347656,0.0048828125,70.0625,-40.0,-56.78125,0.0,0.0,0.0
1695813833154,-0.9042969,-0.016601562,-0.20605469,-27.59375,-99.5625,-34.5,0.0,0.0,0.0
1695813833180,-1.3154297,-0.3359375,-0.9091797,-44.28125,-75.21875,-40.25,0.0,0.0,0.0
1695813833230,-1.0214844,0.45898438,0.7109375,-129.90625,35.4375,55.34375,0.0,0.0,0.0
1695813833280,-1.0224609,-0.7167969,-0.18261719,19.34375,17.75,32.75,0.0,0.0,0.0
1695813833305,-2.0,0.9355469,-0.13867188,-64.09375,-22.21875,85.5625,0.0,0.0,0.0
1695813833354,-0.8408203,-0.5058594,0.234375,1.15625,23.1875,61.625,0.0,0.0,0.0
1695813833379,-1.1513672,-0.546875,-0.021484375,53.9375,-35.46875,-65.5625,0.0,0.0,0.0
1695813833435,-1.1884766,0.15039062,-0.1171875,-28.9375,-38.90625,-43.84375,-88.5,9.0625,-48.9375
1695813833479,-0.7890625,0.15722656,-0.0068359375,-10.9375,-11.125,-15.75,0.0,0.0,0.0
1695813833504,-0.6435547,0.22558594,0.015625,43.125,11.03125,-24.625,0.0,0.0,0.0
1695813833556,-0.58984375,0.11621094,-0.051757812,12.0625,0.90625,5.0625,0.0,0.0,0.0
1695813833579,-0.6933594,-0.1328125,0.13476562,19.5625,8.71875,11.59375,0.0,0.0,0.0
1695813833630,-0.6591797,-0.013671875,-0.103515625,-10.28125,8.96875,17.0,0.0,0.0,0.0
1695813833679,-0.9013672,0.27246094,-0.026367188,-23.875,34.21875,11.28125,0.0,0.0,0.0
1695813833705,-1.0136719,0.30371094,-0.4091797,-39.6875,55.40625,59.375,0.0,0.0,0.0
1695813833758,-1.9921875,0.09472656,-0.20800781,-29.4375,101.59375,121.4375,0.0,0.0,0.0
1695813833781,-2.0,-0.25390625,-0.056640625,-23.4375,131.21875,118.21875,0.0,0.0,0.0
1695813833828,-1.5214844,0.07910156,-0.09863281,-8.875,86.71875,92.09375,0.0,0.0,0.0
1695813833878,-0.87597656,0.076171875,-0.17578125,-0.9375,44.0625,53.6875,0.0,0.0,0.0
1695813833904,-0.6201172,0.27539062,-0.17773438,36.125,15.0625,-12.96875,-83.375,19.5625,-61.125
1695813833954,-0.4482422,-0.083984375,-0.18261719,42.78125,-8.1875,-35.59375,0.0,0.0,0.0
1695813833978,-0.3330078,-0.25195312,-0.12207031,34.78125,-30.71875,-53.3125,0.0,0.0,0.0
1695813834031,-0.26171875,-0.07519531,-0.08984375,10.40625,-53.96875,-88.46875,0.0,0.0,0.0
1695813834085,-0.32226562,-0.013671875,0.0,-64.71875,-102.96875,-113.0625,0.0,0.0,0.0
1695813834103,-0.9892578,0.12695312,-0.31835938,-49.625,-85.90625,-94.125,0.0,0.0,0.0
1695813834154,-1.3759766,0.234375,-0.29003906,100.3125,-1.71875,-60.1875,0.0,0.0,0.0
1695813834178,-0.64453125,0.119140625,-0.13574219,3.34375,-26.03125,-22.96875,0.0,0.0,0.0
1695813834230,-1.171875,0.2265625,-0.2705078,-82.15625,-68.5625,-26.75,0.0,0.0,0.0
1695813834279,-1.9414062,-0.2548828,-0.60839844,-13.375,-89.75,41.65625,0.0,0.0,0.0
1695813834306,-0.9638672,0.29003906,0.80566406,53.4375,31.0625,70.25,0.0,0.0,0.0
1695813834354,-1.9638672,0.025390625,-0.4580078,-55.5625,11.53125,46.96875,0.0,0.0,0.0
1695813834379,-1.1660156,-0.28710938,0.41796875,-4.09375,6.875,11.59375,0.0,0.0,0.0
1695813834429,-1.0810547,0.078125,0.2529297,31.65625,-50.96875,-50.3125,-88.9375,10.25,-48.0625
1695813834479,-0.875,-0.095703125,-0.20019531,3.59375,-49.46875,-36.46875,0.0,0.0,0.0
1695813834510,-1.0175781,0.09082031,0.009765625,33.4375,-8.4375,-23.9375,0.0,0.0,0.0
1695813834555,-0.5800781,0.057617188,0.12207031,18.59375,-24.0625,-19.125,0.0,0.0,0.0
1695813834579,-0.21386719,-0.15917969,0.13574219,10.53125,-15.09375,-12.03125,0.0,0.0,0.0
1695813834629,-1.4013672,0.52441406,-0.30664062,10.1875,-1.46875,-17.15625,0.0,0.0,0.0
1695813834680,-0.5214844,-0.22460938,-0.01953125,-37.625,20.625,40.4375,0.0,0.0,0.0
1695813834706,-0.5107422,0.2890625,0.07128906,15.5625,40.75,-20.28125,0.0,0.0,0.0
1695813834754,-1.2460938,0.48632812,-0.2890625,-56.0,46.4375,13.71875,0.0,0.0,0.0
1695813834777,-1.96875,-0.18261719,-0.234375,15.1875,117.71875,158.5625,0.0,0.0,0.0
1695813834828,-1.7265625,-0.5058594,0.01171875,-40.125,150.9375,125.21875,0.0,0.0,0.0
1695813834879,-1.4248047,0.16894531,0.08886719,-14.90625,96.0625,100.375,0.0,0.0,0.0
1695813834905,-0.85253906,0.25976562,-0.0068359375,-31.9375,26.40625,69.0,0.0,0.0,0.0
1695813834955,-0.58691406,0.16503906,-0.0146484375,5.0,-3.25,12.625,-82.375,16.6875,-59.75
1695813834979,-0.24023438,-0.01953125,-0.23925781,38.25,-5.4375,-38.96875,0.0,0.0,0.0
1695813835029,-0.39160156,-0.125,-0.20800781,58.59375,-45.90625,-84.65625,0.0,0.0,0.0
1695813835078,-0.5488281,0.10546875,-0.0390625,48.9375,-68.875,-120.3125,0.0,0.0,0.0
1695813835103,-0.5566406,0.036132812,-0.12890625,21.71875,-74.53125,-127.28125,0.0,0.0,0.0
1695813835157,-1.1259766,0.06933594,-0.30664062,71.34375,-33.53125,-107.125,0.0,0.0,0.0
1695813835180,-1.0957031,0.23535156,-0.015625,81.96875,-25.59375,-53.40625,0.0,0.0,0.0
1695813835228,-0.8466797,-0.23632812,-0.6816406,6.75,-67.09375,0.03125,0.0,0.0,0.0
1695813835279,-1.1669922,-0.013671875,0.076171875,-34.1875,-28.46875,8.84375,0.0,0.0,0.0
1695813835305,-1.390625,-0.81152344,-0.7285156,-8.4375,-44.3125,54.25,0.0,0.0,0.0
1695813835357,-2.0,0.43652344,0.20214844,-39.6875,-21.75,92.34375,0.0,0.0,0.0
1695813835379,-1.2695312,0.19335938,0.20605469,9.125,59.75,61.6875,0.0,0.0,0.0
1695813835428,-1.0371094,-0.5859375,0.16992188,70.96875,-19.0,-26.5,-85.9375,9.8125,-50.75
1695813835478,-1.4638672,0.15136719,-0.033203125,30.5,-29.1875,-61.90625,0.0,0.0,0.0
1695813835504,-0.8046875,0.001953125,-0.049804688,33.96875,1.5,-5.21875,0.0,0.0,0.0
1695813835557,-0.57421875,0.0234375,-0.0107421875,42.03125,-9.71875,-33.78125,0.0,0.0,0.0
1695813835580,-0.640625,0.09375,0.041992188,54.71875,-4.90625,-48.65625,0.0,0.0,0.0
1695813835654,-0.3779297,-0.21679688,0.23339844,1.03125,-20.46875,-25.53125,0.0,0.0,0.0
1695813835679,-0.9716797,0.26171875,0.020507812,33.1875,-37.84375,-52.5625,0.0,0.0,0.0
1695813835705,-1.0751953,0.087890625,-0.16503906,9.09375,-10.8125,-23.15625,0.0,0.0,0.0
1695813835755,-0.89453125,0.40527344,-0.23632812,10.375,30.9375,-4.46875,0.0,0.0,0.0
1695813835778,-1.421875,0.4345703,-0.076171875,63.09375,69.1875,12.25,0.0,0.0,0.0
1695813835829,-1.5273438,-0.021484375,-0.20214844,43.25,107.21875,83.125,0.0,0.0,0.0
1695813835879,-1.9511719,-0.119140625,0.42578125,60.78125,116.0625,118.5625,0.0,0.0,0.0
1695813835904,-1.4716797,-0.2607422,0.09472656,9.25,24.34375,129.125,0.0,0.0,0.0
1695813835957,-1.3818359,0.41015625,0.024414062,89.46875,-41.75,119.78125,-83.5625,4.8125,-58.125
1695813836005,-1.1357422,0.02734375,0.043945312,118.34375,-23.5,70.46875,0.0,0.0,0.0
1695813836029,-0.859375,-0.22949219,0.021484375,179.3125,-12.90625,34.90625,0.0,0.0,0.0
1695813836079,-0.5566406,-0.39941406,-0.21191406,153.0,-7.875,14.625,0.0,0.0,0.0
1695813836103,-0.49609375,9.765625E-4,-0.19042969,143.0625,-26.625,-12.46875,0.0,0.0,0.0
1695813836155,-0.5019531,-0.030273438,-0.41992188,7.5625,-58.90625,-43.78125,0.0,0.0,0.0
1695813836179,-1.1552734,0.37597656,-0.29003906,80.6875,34.40625,-66.59375,0.0,0.0,0.0
1695813836230,-1.1152344,0.5175781,-0.040039062,134.03125,21.09375,-20.03125,0.0,0.0,0.0
1695813836283,-0.5410156,0.11425781,0.50097656,1.625,-71.625,6.8125,0.0,0.0,0.0
1695813836304,-1.5205078,-0.76660156,-0.71484375,71.6875,-84.5625,-25.03125,0.0,0.0,0.0
1695813836354,-1.1572266,0.2265625,0.140625,2.1875,-44.625,-11.6875,0.0,0.0,0.0
1695813836380,-0.73339844,-0.83984375,0.040039062,86.28125,-18.6875,-40.59375,0.0,0.0,0.0
1695813836429,-1.1123047,-0.13476562,0.11328125,102.65625,-21.875,-66.125,-85.8125,-11.375,-53.625
1695813836480,-1.0400391,0.16210938,0.07421875,36.25,-40.71875,-32.65625,0.0,0.0,0.0
1695813836504,-0.97265625,-0.19824219,-0.0078125,44.53125,-38.53125,-39.5625,0.0,0.0,0.0
1695813836553,-0.9169922,-0.049804688,0.032226562,46.375,-38.96875,-43.71875,0.0,0.0,0.0
1695813836578,-0.8574219,-0.18945312,0.18554688,12.9375,-45.90625,-37.78125,0.0,0.0,0.0
1695813836628,-0.9736328,-0.09277344,0.06347656,42.09375,-37.0625,-45.5625,0.0,0.0,0.0
1695813836678,-0.95703125,-0.040039062,0.18847656,41.4375,-23.5,-45.0625,0.0,0.0,0.0
1695813836703,-1.078125,-0.17089844,0.01953125,35.5,-42.1875,-41.9375,0.0,0.0,0.0
1695813836754,-1.0087891,-0.049804688,0.032226562,2.125,-37.25,-33.53125,0.0,0.0,0.0
1695813836781,-1.09375,0.17773438,-0.034179688,6.75,-1.0,-6.375,0.0,0.0,0.0
1695813836829,-1.2822266,0.2529297,-0.2705078,15.0625,62.1875,48.03125,0.0,0.0,0.0
1695813836879,-1.3613281,0.26757812,-0.24707031,16.53125,174.375,111.375,0.0,0.0,0.0
1695813836904,-1.5732422,-0.4658203,0.072265625,27.21875,221.46875,145.5625,0.0,0.0,0.0
1695813836954,-1.2587891,-1.0039062,0.3466797,-32.96875,156.65625,128.46875,-82.5,-15.25,-50.4375
1695813836979,-1.2050781,-0.059570312,0.1015625,-51.71875,83.71875,122.84375,0.0,0.0,0.0
1695813837029,-1.140625,0.20800781,-0.18359375,-6.5,35.375,108.5,0.0,0.0,0.0
1695813837078,-0.81640625,0.18945312,-0.103515625,25.25,15.96875,101.3125,0.0,0.0,0.0
1695813837104,-0.5097656,0.07910156,0.14746094,109.59375,31.84375,65.15625,0.0,0.0,0.0
1695813837153,-0.4033203,-0.20898438,-0.08300781,49.1875,-0.625,0.0,0.0,0.0,0.0
1695813837178,-0.2998047,-0.17285156,-0.16601562,51.4375,-27.90625,-28.875,0.0,0.0,0.0
1695813837229,-0.15722656,-0.29003906,-0.03515625,-25.96875,-66.90625,-68.5625,0.0,0.0,0.0
1695813837281,-0.3359375,-0.033203125,0.009765625,-33.9375,-77.71875,-95.28125,0.0,0.0,0.0
1695813837304,-1.0332031,0.2783203,-0.3388672,75.375,-42.125,-97.1875,0.0,0.0,0.0
1695813837355,-1.2734375,0.2861328,-0.15039062,122.96875,-53.78125,-69.90625,0.0,0.0,0.0
1695813837379,-0.7265625,-0.16699219,-0.06933594,-41.75,-103.34375,-17.78125,0.0,0.0,0.0
1695813837428,-1.8349609,-0.00390625,-0.7998047,49.65625,-61.28125,-15.75,-85.5,-16.625,-49.25
1695813837479,-1.6269531,-0.37402344,-0.66308594,-39.5,-75.28125,76.59375,0.0,0.0,0.0
1695813837505,-1.3886719,0.34375,0.41503906,-75.8125,61.8125,114.84375,0.0,0.0,0.0
1695813837555,-0.92089844,-0.3046875,0.3017578,-15.03125,50.875,31.90625,0.0,0.0,0.0
1695813837579,-1.0341797,0.06738281,0.35546875,15.125,-31.3125,-29.4375,0.0,0.0,0.0
1695813837628,-1.5351562,0.13769531,-0.20703125,-11.3125,-61.53125,-33.84375,0.0,0.0,0.0
1695813837679,-1.0107422,0.31445312,-0.044921875,22.75,-8.125,30.0,0.0,0.0,0.0
1695813837704,-0.51464844,-0.3935547,-0.14355469,4.625,-2.875,-10.40625,0.0,0.0,0.0
1695813837754,-0.65722656,0.09667969,0.033203125,23.125,-22.53125,-60.5625,0.0,0.0,0.0
1695813837779,-0.91503906,0.43164062,-0.022460938,-10.40625,-11.78125,-30.46875,0.0,0.0,0.0
1695813837828,-0.67871094,0.14257812,-0.08203125,-16.0,26.65625,23.53125,0.0,0.0,0.0
1695813837879,-0.22265625,-0.06933594,-0.078125,-17.21875,52.78125,-17.34375,0.0,0.0,0.0
1695813837904,-1.5019531,0.5654297,-0.37109375,-55.0,69.5625,0.40625,0.0,0.0,0.0
1695813837954,-1.3076172,0.25097656,-0.15234375,27.9375,147.125,143.59375,-85.9375,-17.9375,-52.125
1695813837979,-1.6416016,-0.5722656,0.09667969,41.65625,146.65625,84.09375,0.0,0.0,0.0
1695813838030,-1.4150391,-0.047851562,-0.30273438,6.34375,53.4375,56.3125,0.0,0.0,0.0
1695813838078,-0.9267578,0.14160156,-0.12988281,3.46875,-39.5625,38.1875,0.0,0.0,0.0
1695813838103,-0.61621094,-0.1484375,-0.10253906,16.9375,-52.25,-18.5625,0.0,0.0,0.0
1695813838155,-0.46484375,-0.15039062,-0.20410156,43.0,-41.75,-53.65625,0.0,0.0,0.0
1695813838179,-0.453125,0.00390625,-0.28320312,48.625,-52.5625,-81.0625,0.0,0.0,0.0
1695813838228,-0.5029297,-0.0146484375,-0.21191406,52.0625,-76.5,-102.125,0.0,0.0,0.0
1695813838278,-0.984375,0.025390625,-0.25878906,50.46875,-24.5,-75.53125,0.0,0.0,0.0
1695813838303,-1.0341797,0.3310547,0.064453125,62.0625,-16.9375,-31.15625,0.0,0.0,0.0
1695813838355,-0.67578125,-0.13671875,-0.68652344,22.125,-72.65625,-14.3125,0.0,0.0,0.0
1695813838378,-1.0175781,-0.20019531,-0.15136719,-36.75,-62.9375,16.21875,0.0,0.0,0.0
1695813838428,-1.1416016,-0.5839844,-0.26367188,-31.75,-16.0625,13.84375,-85.5,-20.5,-44.75
1695813838480,-2.0,0.60058594,-0.44140625,-65.25,-22.15625,92.03125,0.0,0.0,0.0
1695813838506,-0.8701172,-0.2685547,-0.08203125,6.8125,99.28125,114.1875,0.0,0.0,0.0
1695813838555,-0.77734375,-0.5205078,0.35351562,48.1875,1.6875,-19.78125,0.0,0.0,0.0
1695813838578,-1.4765625,0.22753906,-0.26660156,15.5625,-34.5,-77.03125,0.0,0.0,0.0
1695813838629,-1.1152344,0.10839844,-0.21289062,5.1875,-11.375,8.46875,0.0,0.0,0.0
1695813838680,-0.79296875,-0.05859375,-0.09863281,50.34375,13.40625,-27.46875,0.0,0.0,0.0
1695813838708,-0.7314453,-0.0087890625,0.043945312,40.6875,13.28125,-54.40625,0.0,0.0,0.0
1695813838757,-0.5488281,0.046875,0.036132812,47.46875,-29.96875,-64.53125,0.0,0.0,0.0
1695813838781,-1.0966797,0.42382812,0.10644531,23.0,-31.9375,-36.03125,0.0,0.0,0.0
1695813838829,-0.27441406,-0.0390625,0.24121094,42.28125,-43.84375,-38.03125,0.0,0.0,0.0
1695813838878,-1.1367188,0.27441406,-0.31933594,83.71875,-35.125,-90.78125,0.0,0.0,0.0
1695813838904,-0.95410156,0.609375,-0.3984375,20.125,16.40625,-5.75,0.0,0.0,0.0
1695813838954,-1.3408203,-0.024414062,-0.037109375,57.34375,104.28125,31.40625,-82.1875,-28.3125,-38.3125
1695813838978,-1.3388672,-0.22167969,0.28222656,71.8125,82.9375,73.53125,0.0,0.0,0.0
1695813839028,-1.6445312,-0.07910156,0.3017578,42.09375,53.5625,130.90625,0.0,0.0,0.0
1695813839079,-1.7744141,0.19921875,0.22851562,78.15625,-13.03125,159.15625,0.0,0.0,0.0
1695813839104,-1.6845703,0.18554688,0.10253906,175.78125,6.34375,147.25,0.0,0.0,0.0
1695813839155,-1.0058594,-0.3203125,0.057617188,202.8125,4.75,111.8125,0.0,0.0,0.0
1695813839179,-0.6699219,-0.44628906,-0.072265625,217.8125,20.5625,81.71875,0.0,0.0,0.0
1695813839229,-0.4453125,-0.4169922,-0.14746094,151.59375,27.34375,39.71875,0.0,0.0,0.0
1695813839280,-0.421875,-0.2734375,-0.16015625,63.875,-2.75,4.125,0.0,0.0,0.0
1695813839305,-0.3623047,-0.21679688,-0.34179688,16.46875,-26.625,-45.96875,0.0,0.0,0.0
1695813839355,-0.96484375,0.50097656,-0.5449219,74.09375,-16.0,-92.1875,0.0,0.0,0.0
1695813839380,-1.6650391,1.1582031,-0.26171875,154.9375,38.9375,-67.34375,0.0,0.0,0.0
1695813839428,-1.0107422,0.12207031,-0.13867188,63.9375,-18.625,49.71875,-91.8125,-20.375,-39.0625
1695813839504,-1.5263672,-0.52246094,-0.37109375,-143.8125,-95.46875,75.0625,0.0,0.0,0.0
1695813839506,-0.36035156,0.47851562,0.26464844,-23.625,-13.4375,54.1875,0.0,0.0,0.0
1695813839555,-0.6933594,-0.59375,0.5019531,-11.625,-44.5625,-51.40625,0.0,0.0,0.0
1695813839580,-1.7636719,0.12402344,0.23046875,99.21875,-51.34375,-69.78125,0.0,0.0,0.0
1695813839629,-0.86328125,-0.15820312,0.038085938,24.75,-30.78125,1.6875,0.0,0.0,0.0
1695813839704,-0.9394531,-0.064453125,0.020507812,36.71875,-42.875,-36.03125,0.0,0.0,0.0
1695813839706,-1.0039062,-0.024414062,-0.0859375,42.46875,-26.625,-41.65625,0.0,0.0,0.0
1695813839756,-0.8457031,-0.125,0.0146484375,19.875,-35.84375,-21.6875,0.0,0.0,0.0
1695813839789,-1.0507812,0.13378906,-0.08886719,8.65625,-20.9375,-27.90625,0.0,0.0,0.0
1695813839828,-0.92578125,0.23242188,-0.1015625,21.53125,-2.03125,0.0,0.0,0.0,0.0
1695813839879,-0.7626953,0.06347656,-0.13085938,11.9375,8.71875,16.40625,0.0,0.0,0.0
1695813839904,-0.8925781,0.0107421875,-0.21484375,29.09375,40.5625,26.09375,0.0,0.0,0.0
1695813839954,-0.6796875,-0.1953125,0.0029296875,-23.09375,30.25,42.71875,-92.6875,-16.625,-24.6875
1695813839978,-0.42871094,-0.18554688,0.27148438,-18.3125,6.40625,15.96875,0.0,0.0,0.0
1695813840029,-1.1181641,0.34375,0.056640625,-1.34375,-21.8125,-14.1875,0.0,0.0,0.0
1695813840105,-0.98339844,0.20117188,-0.016601562,-1.25,16.15625,64.9375,0.0,0.0,0.0
1695813840106,-0.7753906,-0.02734375,-0.11621094,46.8125,37.34375,-7.8125,0.0,0.0,0.0
1695813840155,-1.7128906,0.35742188,-0.51171875,-38.34375,51.5,44.53125,0.0,0.0,0.0
1695813840179,-1.578125,-0.08691406,-0.3046875,-7.53125,114.1875,106.5625,0.0,0.0,0.0
1695813840229,-1.6728516,-0.045898438,-9.765625E-4,-42.0625,93.0625,93.90625,0.0,0.0,0.0
1695813840278,-1.2041016,0.20703125,-0.06542969,-37.625,42.03125,93.6875,0.0,0.0,0.0
1695813840304,-0.82714844,0.22460938,-0.10839844,11.21875,-3.96875,46.125,0.0,0.0,0.0
1695813840356,-0.8798828,0.25390625,-0.15820312,65.46875,-12.03125,19.03125,0.0,0.0,0.0
1695813840381,-0.3935547,-0.12988281,-0.20703125,83.71875,-31.5,-20.9375,0.0,0.0,0.0
1695813840429,-0.40527344,-0.119140625,-0.3544922,49.53125,-42.8125,-52.03125,-97.375,-5.1875,-42.5
1695813840483,-0.46289062,-0.0390625,-0.16308594,0.96875,-61.21875,-79.0,0.0,0.0,0.0
1695813840505,-0.66308594,-0.020507812,-0.15039062,-53.84375,-61.40625,-91.03125,0.0,0.0,0.0
1695813840554,-1.0947266,0.18164062,-0.080078125,-26.375,-43.15625,-74.90625,0.0,0.0,0.0
1695813840578,-0.75097656,0.30273438,-0.052734375,18.46875,-53.1875,-59.40625,0.0,0.0,0.0
1695813840629,-0.7910156,0.10058594,-0.08105469,-8.9375,-78.6875,-54.03125,0.0,0.0,0.0
1695813840681,-1.0478516,-0.16992188,-0.4892578,2.5,-67.8125,-59.09375,0.0,0.0,0.0
1695813840704,-1.1611328,0.31640625,-0.19726562,-19.0625,3.03125,-19.125,0.0,0.0,0.0
1695813840756,-1.7138672,-0.7421875,-0.5107422,6.40625,-4.40625,20.375,0.0,0.0,0.0
1695813840779,-0.79785156,0.33203125,0.5439453,-17.28125,24.40625,78.46875,0.0,0.0,0.0
1695813840828,-2.0,0.60546875,0.091796875,-30.65625,-18.25,50.78125,0.0,0.0,0.0
1695813840878,-1.1201172,-0.41503906,0.12109375,34.46875,-7.34375,-3.125,0.0,0.0,0.0
1695813840904,-1.2939453,-0.01171875,-0.053710938,-20.46875,-29.0,-40.0625,0.0,0.0,0.0
1695813840954,-0.88183594,0.033203125,0.06347656,14.6875,-25.90625,-38.59375,-94.0625,-12.4375,-24.5
1695813840980,-0.7792969,0.3017578,-0.048828125,41.25,-22.40625,-53.375,0.0,0.0,0.0
1695813841029,-0.9091797,0.140625,-0.005859375,35.5625,-25.03125,-5.4375,0.0,0.0,0.0
1695813841079,-0.765625,0.00390625,-0.076171875,35.3125,-26.4375,-6.0625,0.0,0.0,0.0
1695813841104,-0.52246094,-0.060546875,-0.109375,14.09375,15.71875,2.84375,0.0,0.0,0.0
1695813841153,-0.9746094,0.13671875,-0.041992188,-1.90625,16.71875,-6.59375,0.0,0.0,0.0
1695813841178,-0.47851562,0.018554688,0.14453125,-30.84375,12.875,17.0,0.0,0.0,0.0
1695813841229,-0.8955078,0.28125,0.20214844,14.625,27.5,0.28125,0.0,0.0,0.0
1695813841281,-1.1806641,0.26464844,0.18261719,10.0625,50.8125,66.28125,0.0,0.0,0.0
1695813841306,-1.4628906,-0.31933594,-0.25195312,-11.78125,73.09375,81.84375,0.0,0.0,0.0
1695813841353,-1.8056641,-0.20605469,-0.3076172,-52.875,103.3125,77.1875,0.0,0.0,0.0
1695813841379,-1.8056641,0.44335938,-0.16796875,-28.8125,69.9375,127.59375,0.0,0.0,0.0
1695813841428,-1.2431641,0.08300781,-0.10546875,2.0625,48.1875,97.59375,-98.6875,-4.4375,-33.5
1695813841479,-0.68066406,0.18261719,-0.07324219,50.875,25.5625,34.09375,0.0,0.0,0.0
1695813841505,-0.41210938,-0.14257812,-0.16894531,59.96875,23.65625,-4.21875,0.0,0.0,0.0
1695813841554,-0.31640625,-0.22460938,-0.234375,39.90625,-0.5,-22.71875,0.0,0.0,0.0
1695813841579,-0.375,-0.11621094,-0.12890625,12.8125,-25.15625,-51.40625,0.0,0.0,0.0
1695813841628,-0.38085938,-0.08105469,0.02734375,-27.71875,-56.0,-85.90625,0.0,0.0,0.0
1695813841678,-0.67089844,0.23535156,0.041015625,-89.8125,-50.375,-106.65625,0.0,0.0,0.0
1695813841706,-1.3671875,0.5498047,-0.3623047,23.65625,-32.1875,-80.46875,0.0,0.0,0.0
1695813841757,-0.90722656,0.3984375,0.013671875,54.1875,-34.375,-26.5,0.0,0.0,0.0
1695813841780,-0.69140625,-0.12890625,-0.12109375,46.625,-76.90625,-31.6875,0.0,0.0,0.0
1695813841829,-0.9511719,-0.24121094,-0.6279297,-1.1875,-66.53125,-48.34375,0.0,0.0,0.0
1695813841879,-1.4160156,-0.076171875,0.16601562,-61.53125,-48.84375,49.46875,0.0,0.0,0.0
1695813841905,-1.8164062,-0.12597656,-0.015625,25.5,39.0625,25.375,0.0,0.0,0.0
1695813841955,-1.1074219,0.46972656,-0.109375,-116.15625,32.5625,123.46875,-95.25,-10.75,-21.9375
1695813841979,-1.21875,-0.19140625,0.076171875,-1.0,-18.4375,-23.28125,0.0,0.0,0.0
1695813842035,-1.3203125,-0.053710938,0.13378906,12.3125,-20.78125,-60.0625,0.0,0.0,0.0
1695813842078,-1.1035156,0.047851562,-0.016601562,6.75,-33.78125,-36.28125,0.0,0.0,0.0
1695813842103,-0.765625,0.041015625,-0.06933594,8.96875,-28.34375,-62.6875,0.0,0.0,0.0
1695813842153,-0.8486328,0.09667969,-0.0087890625,-6.65625,-20.28125,-56.40625,0.0,0.0,0.0
1695813842178,-0.8173828,0.2607422,-0.01953125,6.03125,-35.28125,-26.25,0.0,0.0,0.0
1695813842228,-0.6035156,0.23535156,-0.09863281,4.5625,1.5625,10.59375,0.0,0.0,0.0
1695813842279,-0.70996094,0.022460938,0.11816406,26.21875,25.0625,35.625,0.0,0.0,0.0
1695813842304,-0.6201172,0.12890625,0.05859375,18.65625,-3.0,-4.46875,0.0,0.0,0.0
1695813842355,-1.0527344,0.36523438,-0.17578125,-37.125,72.125,67.5625,0.0,0.0,0.0
1695813842379,-0.8105469,-0.20019531,-9.765625E-4,7.90625,75.0,40.875,0.0,0.0,0.0
1695813842430,-1.5634766,0.43359375,-0.21484375,-56.0,83.65625,64.875,-91.625,-16.625,-25.6875
1695813842480,-1.6220703,0.045898438,0.11816406,-2.40625,96.1875,156.46875,0.0,0.0,0.0
1695813842505,-1.6904297,-0.25683594,0.029296875,29.65625,93.0625,126.375,0.0,0.0,0.0
1695813842554,-1.2177734,0.046875,0.01953125,-7.40625,38.1875,95.6875,0.0,0.0,0.0
1695813842580,-0.7626953,0.07421875,-0.17578125,-3.5625,-7.875,28.375,0.0,0.0,0.0
1695813842630,-0.62890625,0.0859375,-0.16113281,16.28125,-8.4375,-35.65625,0.0,0.0,0.0
1695813842680,-0.5419922,-0.08886719,-0.16503906,49.3125,5.90625,-63.375,0.0,0.0,0.0
1695813842704,-0.46972656,-0.20898438,-0.08691406,33.75,-35.84375,-95.40625,0.0,0.0,0.0
1695813842755,-0.49609375,-0.09375,0.020507812,-24.6875,-69.28125,-120.75,0.0,0.0,0.0
1695813842780,-0.6953125,0.13476562,-0.2109375,18.0,-15.46875,-133.1875,0.0,0.0,0.0
1695813842830,-1.1904297,0.15722656,-0.31347656,74.9375,-19.71875,-88.9375,0.0,0.0,0.0
1695813842880,-0.8339844,0.24707031,-0.095703125,57.125,-45.71875,-49.8125,0.0,0.0,0.0
1695813842904,-1.3964844,-0.052734375,-0.7548828,-5.25,-56.84375,-13.03125,0.0,0.0,0.0
1695813842955,-1.3291016,-0.66015625,0.095703125,-175.84375,-48.59375,84.15625,-92.375,-16.625,-24.9375
1695813842981,-1.1865234,0.24511719,0.46191406,-31.21875,22.5,40.03125,0.0,0.0,0.0
1695813843029,-1.2939453,0.5859375,-0.29003906,-53.125,27.8125,99.65625,0.0,0.0,0.0
1695813843080,-0.64453125,-0.8232422,0.43359375,51.875,-1.0,9.125,0.0,0.0,0.0
1695813843106,-1.5068359,0.2939453,-0.12890625,26.21875,-38.34375,-95.90625,0.0,0.0,0.0
1695813843154,-0.8857422,0.24609375,-0.12207031,3.46875,-36.03125,1.3125,0.0,0.0,0.0
1695813843178,-0.640625,-0.14160156,-0.01953125,56.6875,-20.28125,-31.15625,0.0,0.0,0.0
1695813843228,-0.68847656,0.24511719,-0.047851562,38.625,-26.5,-29.4375,0.0,0.0,0.0
1695813843279,-0.6855469,-0.16699219,0.1171875,31.53125,-8.75,-9.46875,0.0,0.0,0.0
1695813843303,-0.78808594,0.38085938,-0.13378906,1.625,13.40625,0.09375,0.0,0.0,0.0
1695813843354,-0.3486328,-0.2783203,0.08691406,2.1875,31.40625,16.34375,0.0,0.0,0.0
1695813843380,-1.2246094,0.5644531,-0.15625,-9.125,18.34375,-24.90625,0.0,0.0,0.0
1695813843430,-1.5224609,0.22265625,-0.2890625,-28.6875,72.4375,97.9375,-90.0,-17.8125,-22.125
1695813843481,-1.5078125,-0.3720703,-0.046875,6.8125,146.78125,106.90625,0.0,0.0,0.0
1695813843504,-2.0,-0.3642578,-0.2421875,1.03125,127.25,107.90625,0.0,0.0,0.0
1695813843555,-1.2119141,-0.109375,-0.061523438,-48.1875,89.28125,107.65625,0.0,0.0,0.0
1695813843579,-0.6582031,0.095703125,-0.09277344,-12.65625,34.09375,54.1875,0.0,0.0,0.0
1695813843630,-0.7089844,0.25683594,-0.03125,19.21875,11.03125,-4.90625,0.0,0.0,0.0
1695813843681,-0.31640625,-0.032226562,-0.16113281,37.75,-25.53125,-52.5625,0.0,0.0,0.0
1695813843706,-0.11328125,-0.041992188,-0.22753906,65.90625,-74.0,-82.46875,0.0,0.0,0.0
1695813843754,-0.3408203,0.09277344,-0.047851562,21.40625,-99.3125,-119.59375,0.0,0.0,0.0
1695813843779,-0.8857422,0.057617188,-0.17285156,67.78125,-32.84375,-130.5625,0.0,0.0,0.0
1695813843829,-1.2373047,0.10449219,-0.3203125,139.21875,-22.40625,-62.09375,0.0,0.0,0.0
1695813843878,-0.5048828,-0.19726562,-0.3623047,-38.78125,-67.40625,-35.0,0.0,0.0,0.0
1695813843905,-1.5039062,-0.032226562,0.057617188,-40.40625,-32.5625,18.125,0.0,0.0,0.0
1695813843955,-0.8935547,0.15820312,0.51464844,-44.6875,5.46875,54.1875,-94.0625,-14.9375,-25.5625
1695813843980,-2.0,1.1123047,-0.7265625,-128.25,-0.1875,104.0,0.0,0.0,0.0
1695813844028,-0.828125,-0.6660156,0.34960938,-22.65625,23.84375,42.96875,0.0,0.0,0.0
1695813844083,-1.2119141,-0.22070312,0.12011719,53.75,-37.96875,-86.25,0.0,0.0,0.0
1695813844105,-1.1269531,0.4970703,-0.043945312,17.9375,-35.34375,-50.0,0.0,0.0,0.0
1695813844155,-0.72265625,0.022460938,-0.08300781,48.375,-29.6875,-39.0625,0.0,0.0,0.0
1695813844180,-0.67578125,0.087890625,-0.13867188,66.9375,-26.3125,-54.9375,0.0,0.0,0.0
1695813844230,-0.85253906,0.115234375,-0.11621094,18.90625,-36.09375,-30.46875,0.0,0.0,0.0
1695813844278,-0.7246094,0.3701172,0.0390625,9.25,6.6875,2.78125,0.0,0.0,0.0
1695813844304,-0.53125,0.13183594,0.14160156,34.28125,19.03125,-0.5625,0.0,0.0,0.0
1695813844354,-1.0068359,0.10449219,0.15039062,77.125,-13.625,-39.8125,0.0,0.0,0.0
1695813844378,-0.6777344,0.51660156,-0.28320312,40.5625,24.53125,-23.9375,0.0,0.0,0.0
1695813844429,-0.9316406,0.029296875,-0.08496094,68.34375,104.15625,34.09375,-87.625,-18.875,-20.625
1695813844478,-1.7167969,0.21289062,-0.09667969,72.6875,141.9375,82.375,0.0,0.0,0.0
1695813844504,-1.6162109,-0.14648438,0.4111328,40.375,139.03125,137.1875,0.0,0.0,0.0
1695813844555,-2.0,0.09667969,0.3251953,52.84375,62.1875,177.15625,0.0,0.0,0.0
1695813844581,-1.59375,0.171875,-0.061523438,59.5625,-16.0,172.53125,0.0,0.0,0.0
1695813844628,-1.1914062,0.49414062,0.056640625,106.5625,-65.09375,118.9375,0.0,0.0,0.0
1695813844681,-1.1582031,0.06933594,0.1171875,214.65625,-35.46875,60.21875,0.0,0.0,0.0
1695813844704,-0.8076172,-0.45214844,-0.15332031,230.40625,-20.65625,38.4375,0.0,0.0,0.0
1695813844755,-0.32128906,-0.26757812,-0.1328125,253.03125,-12.34375,28.0625,0.0,0.0,0.0
1695813844789,-0.39453125,-0.38671875,-0.27929688,44.0625,-52.3125,11.15625,0.0,0.0,0.0
1695813844856,-0.6357422,-0.21972656,-0.4033203,-27.96875,-44.21875,-20.65625,0.0,0.0,0.0
1695813844857,-0.8125,0.27734375,-0.359375,55.53125,5.34375,-46.28125,0.0,0.0,0.0
1695813844905,-1.0859375,0.8378906,-0.4189453,127.5625,11.03125,-54.46875,0.0,0.0,0.0
1695813844954,-1.1728516,0.77441406,-0.23242188,97.34375,-1.0625,-2.03125,-95.5625,4.5625,-35.625
1695813844978,-0.9902344,0.087890625,-0.24804688,51.8125,-36.03125,58.40625,0.0,0.0,0.0
1695813845030,-1.3154297,-0.005859375,-0.7519531,17.25,-58.25,14.8125,0.0,0.0,0.0
1695813845055,-2.0,0.75390625,-0.0126953125,-54.8125,5.0,32.40625,0.0,0.0,0.0
1695813845105,-0.057617188,-0.6308594,-0.5107422,4.625,-36.5,86.46875,0.0,0.0,0.0
1695813845156,-0.22265625,-0.55371094,0.62597656,36.53125,-97.84375,-111.15625,0.0,0.0,0.0
1695813845180,-2.0,0.42578125,0.23046875,43.4375,-112.6875,-42.875,0.0,0.0,0.0
1695813845229,-0.75,-0.41601562,-0.11230469,-16.25,-34.3125,-6.65625,0.0,0.0,0.0
1695813845253,-0.6308594,-0.20117188,0.040039062,34.46875,-34.4375,-78.8125,0.0,0.0,0.0
1695813845305,-1.2128906,0.13867188,-0.038085938,51.0625,-49.8125,-67.34375,0.0,0.0,0.0
1695813845357,-0.84472656,0.0068359375,0.0107421875,12.0,-37.0625,-16.96875,0.0,0.0,0.0
1695813845379,-0.8925781,0.25585938,-0.087890625,24.21875,-17.53125,-21.375,0.0,0.0,0.0
1695813845428,-1.0615234,0.49609375,-0.1640625,25.0,-13.8125,21.03125,-92.5625,4.5625,-22.125
1695813845454,-0.6611328,0.103515625,-0.234375,46.875,-12.15625,59.875,0.0,0.0,0.0
1695813845505,-0.33789062,-0.39160156,0.11328125,9.6875,30.6875,43.1875,0.0,0.0,0.0
1695813845554,-0.7470703,-0.18261719,0.16894531,28.125,8.46875,-3.5625,0.0,0.0,0.0
1695813845579,-0.8027344,0.23632812,0.16601562,-33.28125,-9.125,10.84375,0.0,0.0,0.0
1695813845629,-0.94628906,0.13378906,-0.03125,-2.21875,15.0,14.5,0.0,0.0,0.0
1695813845654,-0.78808594,0.3544922,9.765625E-4,-20.59375,31.0625,14.375,0.0,0.0,0.0
1695813845706,-1.3730469,0.29589844,-0.080078125,2.375,45.75,40.15625,0.0,0.0,0.0
1695813845781,-2.0,0.12695312,-0.3017578,-9.65625,90.375,124.1875,0.0,0.0,0.0
1695813845783,-1.9746094,-0.6455078,-0.16699219,23.59375,127.125,118.875,0.0,0.0,0.0
1695813845830,-1.3662109,0.12988281,-0.059570312,-50.84375,65.40625,87.03125,0.0,0.0,0.0
1695813845878,-0.84765625,0.22753906,-0.07519531,-30.59375,42.71875,35.375,0.0,0.0,0.0
1695813845903,-0.66015625,0.19140625,-0.095703125,18.1875,15.71875,-5.75,0.0,0.0,0.0
1695813845955,-0.2998047,-0.08300781,-0.19042969,27.75,-14.46875,-33.40625,-88.8125,20.5625,-38.1875
1695813845980,-0.296875,-0.20703125,-0.13574219,22.75,-37.4375,-67.71875,0.0,0.0,0.0
1695813846028,-0.421875,-0.052734375,0.05859375,14.875,-48.65625,-91.875,0.0,0.0,0.0
1695813846053,-0.4794922,-0.025390625,-0.015625,-29.96875,-67.46875,-119.8125,0.0,0.0,0.0
1695813846103,-1.0078125,0.3017578,-0.34960938,10.96875,-31.21875,-117.1875,0.0,0.0,0.0
1695813846154,-1.1591797,0.3173828,-0.3203125,91.125,-26.25,-55.9375,0.0,0.0,0.0
1695813846181,-0.72558594,0.17089844,-0.047851562,31.84375,-40.65625,-14.0,0.0,0.0,0.0
1695813846230,-0.9765625,-0.28515625,-0.5253906,-18.75,-40.3125,-5.09375,0.0,0.0,0.0
1695813846254,-1.7470703,-0.53808594,-0.2548828,-107.5,-30.09375,54.25,0.0,0.0,0.0
1695813846304,-1.2998047,1.0126953,0.8300781,-71.65625,47.28125,63.21875,0.0,0.0,0.0
1695813846354,-1.5488281,0.5673828,0.13671875,-55.25,54.25,59.90625,0.0,0.0,0.0
1695813846378,-0.95703125,-0.30664062,0.18554688,38.75,-8.25,-4.21875,0.0,0.0,0.0
1695813846455,-1.1757812,0.18457031,0.0087890625,31.25,-67.15625,-56.78125,-90.625,11.875,-24.6875
1695813846457,-0.99902344,0.07910156,-0.12109375,33.375,-39.75,-19.5,0.0,0.0,0.0
1695813846505,-0.81933594,0.0625,-0.16699219,54.0,-21.875,-30.96875,0.0,0.0,0.0
1695813846556,-0.6455078,-0.040039062,-0.11230469,27.34375,-23.5,-28.34375,0.0,0.0,0.0
1695813846577,-0.7138672,0.04296875,-0.080078125,26.0,-9.0625,-23.40625,0.0,0.0,0.0
1695813846628,-0.8046875,0.21582031,-0.017578125,18.71875,3.34375,10.84375,0.0,0.0,0.0
1695813846654,-0.6591797,0.052734375,-0.013671875,22.625,4.0,-2.875,0.0,0.0,0.0
1695813846705,-0.7548828,-0.024414062,-0.0146484375,-24.125,37.59375,7.5625,0.0,0.0,0.0
1695813846755,-1.1669922,0.30566406,0.16308594,16.53125,29.9375,-6.0,0.0,0.0,0.0
1695813846780,-1.0751953,0.66015625,-0.28027344,15.0625,64.125,67.375,0.0,0.0,0.0
1695813846829,-2.0,-0.38671875,0.10058594,36.53125,68.15625,146.40625,0.0,0.0,0.0
1695813846855,-1.4912109,9.765625E-4,0.013671875,-16.5,54.625,98.9375,0.0,0.0,0.0
1695813846905,-1.0644531,0.21582031,0.028320312,-26.3125,-3.25,93.125,0.0,0.0,0.0
1695813846954,-0.5888672,0.13867188,-0.047851562,23.3125,-2.21875,29.9375,-85.9375,19.8125,-33.6875
1695813846979,-0.67285156,0.14550781,-0.119140625,71.875,-14.0625,0.46875,0.0,0.0,0.0
1695813847029,-0.42578125,-0.2548828,-0.22949219,101.125,10.46875,-45.71875,0.0,0.0,0.0
1695813847054,-0.3095703,-0.25,-0.19824219,92.5625,-11.5625,-73.8125,0.0,0.0,0.0
1695813847103,-0.42382812,0.15332031,-0.0234375,67.375,-42.3125,-114.34375,0.0,0.0,0.0
1695813847154,-0.9326172,0.024414062,-0.44335938,122.0625,-5.9375,-152.96875,0.0,0.0,0.0
1695813847178,-1.359375,0.35546875,-0.4501953,138.46875,36.90625,-68.5,0.0,0.0,0.0
1695813847229,-0.6298828,0.07910156,0.0146484375,32.40625,-77.46875,35.375,0.0,0.0,0.0
1695813847257,-1.2529297,-0.41992188,-0.21191406,-49.46875,-7.8125,40.34375,0.0,0.0,0.0
1695813847304,-1.0712891,-0.33496094,0.234375,-39.9375,-34.8125,1.15625,0.0,0.0,0.0
1695813847355,-2.0,1.8105469,-0.0859375,-54.75,-44.09375,133.65625,0.0,0.0,0.0
1695813847379,-1.1279297,-0.87890625,0.578125,112.90625,6.6875,4.375,0.0,0.0,0.0
1695813847430,-1.421875,-0.51464844,-0.15234375,91.0625,-36.46875,-87.125,-87.625,15.8125,-35.625
1695813847455,-1.0419922,0.18066406,0.029296875,52.0625,-52.6875,-45.5,0.0,0.0,0.0
1695813847505,-0.7216797,-0.29589844,0.001953125,65.21875,-54.875,-70.875,0.0,0.0,0.0
1695813847555,-0.9560547,0.08203125,0.060546875,61.6875,-32.71875,-82.53125,0.0,0.0,0.0
1695813847580,-0.8466797,-0.0146484375,0.10546875,16.15625,-60.5,-74.78125,0.0,0.0,0.0
1695813847629,-0.9277344,0.35546875,-0.017578125,54.25,-39.03125,-65.875,0.0,0.0,0.0
1695813847657,-1.0537109,0.30859375,-0.41601562,91.28125,6.9375,-26.5625,0.0,0.0,0.0
1695813847706,-1.1123047,0.038085938,-0.07714844,24.21875,52.53125,15.5,0.0,0.0,0.0
1695813847756,-1.3408203,0.16308594,-0.2939453,38.5,111.6875,66.9375,0.0,0.0,0.0
1695813847778,-1.4267578,-0.29882812,0.23339844,44.71875,192.71875,147.1875,0.0,0.0,0.0
1695813847829,-1.5556641,-0.5097656,0.69433594,93.5,156.0,140.125,0.0,0.0,0.0
1695813847854,-1.3134766,0.1015625,-0.123046875,-22.71875,57.78125,134.375,0.0,0.0,0.0
1695813847904,-0.9238281,-0.3828125,-0.060546875,6.8125,4.6875,135.0625,0.0,0.0,0.0
1695813847956,-0.79003906,0.3310547,0.016601562,43.75,-15.03125,88.0,-84.125,19.0625,-48.6875
1695813847978,-0.85839844,0.16699219,0.048828125,122.78125,3.40625,58.75,0.0,0.0,0.0
1695813848030,-0.5917969,-0.18359375,-0.0048828125,148.3125,-4.65625,5.21875,0.0,0.0,0.0
1695813848054,-0.33984375,-0.30859375,-0.23730469,120.09375,-8.625,-11.0,0.0,0.0,0.0
1695813848104,-0.50683594,-0.009765625,-0.25390625,59.875,-53.46875,-50.1875,0.0,0.0,0.0
1695813848155,-1.2080078,0.51464844,-0.4765625,78.15625,-74.34375,-83.6875,0.0,0.0,0.0
1695813848179,-1.3085938,0.6513672,-0.15917969,6.09375,0.65625,-12.34375,0.0,0.0,0.0
1695813848229,-1.2861328,-0.54785156,0.17871094,-31.8125,-98.71875,50.15625,0.0,0.0,0.0
1695813848257,-1.0107422,0.013671875,0.18164062,15.78125,-13.75,-2.6875,0.0,0.0,0.0
1695813848305,-0.9433594,-0.5751953,0.2529297,21.65625,-16.875,-27.96875,0.0,0.0,0.0
1695813848355,-1.1865234,0.013671875,0.20410156,66.8125,-32.59375,-53.90625,0.0,0.0,0.0
1695813848379,-1.1523438,0.03125,-0.046875,45.40625,-20.46875,-26.375,0.0,0.0,0.0
1695813848429,-0.74316406,-0.19140625,0.064453125,49.4375,-30.65625,-43.15625,-88.9375,9.9375,-51.9375
1695813848454,-0.96484375,-0.00390625,-0.059570312,31.59375,-40.125,-36.5,0.0,0.0,0.0
1695813848504,-0.8984375,-0.01171875,-0.068359375,7.84375,-30.65625,-20.15625,0.0,0.0,0.0
1695813848554,-0.98339844,0.13183594,-0.17773438,1.28125,-8.9375,-6.375,0.0,0.0,0.0
1695813848580,-0.8486328,0.13183594,-0.15234375,2.375,1.3125,30.4375,0.0,0.0,0.0
1695813848630,-0.7246094,0.095703125,-0.16308594,2.71875,20.375,31.28125,0.0,0.0,0.0
1695813848654,-0.69140625,-0.109375,0.12597656,-15.9375,16.15625,24.53125,0.0,0.0,0.0
1695813848730,-0.7080078,0.10839844,-0.044921875,7.96875,-12.21875,2.96875,0.0,0.0,0.0
1695813848779,-0.96777344,0.12695312,0.091796875,-2.8125,0.21875,23.96875,0.0,0.0,0.0
1695813848781,-0.6201172,-0.22363281,0.057617188,-13.3125,4.25,4.8125,0.0,0.0,0.0
1695813848830,-1.1142578,0.3720703,-0.19824219,2.0,15.96875,-31.75,0.0,0.0,0.0
1695813848853,-1.21875,0.23535156,-0.19140625,-10.875,58.28125,53.75,0.0,0.0,0.0
1695813848905,-1.609375,0.107421875,-0.39453125,-6.65625,117.46875,93.1875,0.0,0.0,0.0
1695813848955,-2.0,-0.20410156,-0.13964844,20.0,137.5,124.375,-82.625,10.5625,-56.3125
1695813848979,-1.6064453,-0.076171875,-0.16894531,25.75,112.21875,106.5625,0.0,0.0,0.0
1695813849029,-0.9902344,0.13671875,-0.115234375,11.40625,51.75,75.375,0.0,0.0,0.0
1695813849054,-0.48632812,0.10449219,-0.12695312,37.03125,23.71875,26.21875,0.0,0.0,0.0
1695813849104,-0.34277344,-0.043945312,-0.12792969,21.78125,-21.25,-11.4375,0.0,0.0,0.0
1695813849153,-0.29492188,-0.17773438,-0.14648438,35.6875,-62.6875,-31.3125,0.0,0.0,0.0
1695813849180,-0.41601562,-0.1640625,-0.1171875,42.78125,-67.53125,-71.5,0.0,0.0,0.0
1695813849231,-0.62890625,-0.18164062,-0.07128906,-24.90625,-98.53125,-108.90625,0.0,0.0,0.0
1695813849254,-0.9716797,0.3125,-0.19042969,-5.5625,-62.9375,-110.375,0.0,0.0,0.0
1695813849303,-0.93066406,-0.041015625,-0.36621094,47.21875,-62.34375,-59.90625,0.0,0.0,0.0
1695813849353,-0.7128906,0.31835938,0.11035156,18.1875,-79.25,-19.96875,0.0,0.0,0.0
1695813849379,-0.95703125,-0.34765625,-0.51464844,0.34375,-80.53125,-23.875,0.0,0.0,0.0
1695813849432,-1.2236328,-0.125,-0.10546875,-99.625,15.125,19.625,-87.75,6.9375,-52.6875
1695813849453,-1.5058594,-0.41308594,0.22167969,-1.40625,-24.4375,-33.78125,0.0,0.0,0.0
1695813849504,-2.0,2.0,-0.3046875,-102.5,-49.09375,194.1875,0.0,0.0,0.0
1695813849555,-0.6357422,-1.1992188,0.9980469,18.78125,63.09375,59.96875,0.0,0.0,0.0
1695813849580,-1.1699219,-0.3076172,0.032226562,40.03125,-43.90625,-107.125,0.0,0.0,0.0
1695813849631,-0.8574219,0.6777344,-0.10058594,-31.15625,-73.0,-37.75,0.0,0.0,0.0
1695813849681,-0.59277344,-0.17480469,0.0126953125,18.34375,-19.53125,-32.90625,0.0,0.0,0.0
1695813849705,-0.71484375,0.12207031,-0.13183594,44.40625,3.34375,-46.03125,0.0,0.0,0.0
1695813849755,-0.7597656,0.12207031,-0.21484375,-6.84375,-20.65625,0.53125,0.0,0.0,0.0
1695813849779,-0.8417969,0.11328125,0.15625,23.59375,32.8125,36.0,0.0,0.0,0.0
1695813849830,-0.09863281,-0.40625,0.16601562,-13.8125,23.90625,27.625,0.0,0.0,0.0
1695813849854,-1.0166016,0.30371094,-0.3828125,-1.53125,7.3125,-27.90625,0.0,0.0,0.0
1695813849904,-0.94921875,0.10058594,0.23535156,-80.34375,5.34375,34.34375,0.0,0.0,0.0
1695813849955,-1.0322266,0.66796875,0.21875,26.59375,23.90625,-14.0,-88.1875,7.375,-47.4375
1695813849979,-1.8496094,-0.11035156,-0.3046875,-2.21875,93.3125,99.09375,0.0,0.0,0.0
1695813850031,-2.0,-0.42871094,-0.19921875,27.8125,152.5,139.8125,0.0,0.0,0.0
1695813850054,-1.4433594,-0.29589844,-0.0390625,-17.71875,127.5625,90.5,0.0,0.0,0.0
1695813850104,-1.1123047,0.16894531,-0.038085938,-25.90625,75.375,56.875,0.0,0.0,0.0
1695813850154,-0.74609375,0.18359375,-0.15625,-12.78125,10.3125,14.625,0.0,0.0,0.0
1695813850181,-0.6669922,0.32421875,-0.04296875,22.03125,-30.28125,-11.4375,0.0,0.0,0.0
1695813850230,-0.2919922,-0.20117188,0.016601562,59.125,-36.9375,-47.3125,0.0,0.0,0.0
1695813850254,-0.28222656,-0.2763672,-0.009765625,67.3125,-48.40625,-79.84375,0.0,0.0,0.0
1695813850307,-0.2783203,-0.18554688,0.037109375,6.875,-80.46875,-87.65625,0.0,0.0,0.0
1695813850355,-0.7011719,-0.09667969,-0.13867188,-42.3125,-78.5,-99.0,0.0,0.0,0.0
1695813850383,-1.3691406,0.19628906,-0.3046875,21.46875,-50.5625,-66.59375,0.0,0.0,0.0
1695813850429,-0.7998047,0.41601562,0.021484375,0.0,-52.3125,-31.09375,-87.3125,7.5625,-53.1875
1695813850454,-0.8730469,-0.109375,-0.4716797,-44.5625,-66.65625,-14.25,0.0,0.0,0.0
1695813850504,-1.5527344,0.043945312,-0.12988281,-40.96875,-41.8125,-2.09375,0.0,0.0,0.0
1695813850554,-1.3691406,-0.25390625,-0.4248047,30.625,-41.21875,60.84375,0.0,0.0,0.0
1695813850578,-2.0,0.5078125,0.10253906,-33.09375,5.59375,92.5,0.0,0.0,0.0
1695813850629,-1.0625,-0.34179688,0.39648438,-6.4375,30.6875,39.21875,0.0,0.0,0.0
1695813850656,-0.9296875,-0.30664062,0.421875,33.8125,-40.84375,-32.25,0.0,0.0,0.0
1695813850704,-0.78027344,-0.06347656,-0.09277344,23.0,-51.40625,-49.03125,0.0,0.0,0.0
1695813850755,-1.2802734,0.39160156,-0.16015625,20.25,-25.96875,-8.6875,0.0,0.0,0.0
1695813850779,-0.5722656,-0.25097656,0.032226562,5.125,4.5625,5.21875,0.0,0.0,0.0
1695813850831,-0.62402344,-0.072265625,-0.0107421875,-9.34375,34.03125,-14.40625,0.0,0.0,0.0
1695813850854,-0.0859375,-0.19726562,0.16308594,-34.75,27.8125,-7.34375,0.0,0.0,0.0
1695813850903,-1.0380859,0.32128906,0.05078125,-39.3125,-6.78125,-23.15625,0.0,0.0,0.0
1695813850954,-1.2529297,0.6152344,-0.0107421875,-44.625,25.0625,50.875,-90.3125,8.0,-48.1875
1695813850978,-1.0722656,0.36523438,-0.27929688,0.28125,86.34375,64.5,0.0,0.0,0.0
1695813851029,-1.8984375,-0.11816406,-0.27539062,-24.5,124.6875,125.34375,0.0,0.0,0.0
1695813851056,-1.5556641,-0.3671875,-0.051757812,27.09375,157.15625,99.03125,0.0,0.0,0.0
1695813851105,-1.1884766,-0.28222656,-0.12109375,-15.21875,84.6875,61.09375,0.0,0.0,0.0
1695813851156,-0.7763672,0.25683594,-0.0859375,-34.375,7.96875,35.375,0.0,0.0,0.0
1695813851179,-0.61621094,0.1875,-0.068359375,-31.25,-17.28125,-32.375,0.0,0.0,0.0
1695813851229,-0.390625,-0.059570312,-0.13671875,9.75,-28.875,-61.40625,0.0,0.0,0.0
1695813851255,-0.29589844,-0.08886719,-0.15625,20.90625,-58.4375,-85.03125,0.0,0.0,0.0
1695813851304,-0.55078125,0.036132812,-0.1015625,3.9375,-92.90625,-118.375,0.0,0.0,0.0
1695813851381,-0.92578125,0.32421875,-0.13476562,58.875,-26.125,-103.84375,0.0,0.0,0.0
1695813851383,-1.1035156,0.1875,-0.1484375,86.90625,-12.15625,-44.5625,0.0,0.0,0.0
1695813851429,-0.84765625,-0.21972656,-0.5,15.125,-74.59375,-23.03125,-88.8125,8.3125,-53.4375
1695813851454,-1.2246094,0.3095703,0.21484375,-68.3125,-15.8125,24.875,0.0,0.0,0.0
1695813851504,-1.1699219,-0.99902344,-0.11035156,-71.4375,2.84375,62.375,0.0,0.0,0.0
1695813851554,-2.0,1.3339844,-0.3798828,-87.0625,-8.875,82.5625,0.0,0.0,0.0
1695813851579,-0.5917969,-0.7050781,0.625,-40.375,52.28125,71.59375,0.0,0.0,0.0
1695813851629,-1.2822266,-0.038085938,0.037109375,111.6875,-41.28125,-84.375,0.0,0.0,0.0
1695813851654,-1.1435547,0.24121094,-0.1015625,9.75,-69.34375,-27.53125,0.0,0.0,0.0
1695813851703,-0.8154297,-0.21484375,-0.18261719,57.40625,-16.0,-21.125,0.0,0.0,0.0
1695813851754,-0.8222656,0.1171875,-0.09375,49.1875,-10.75,-45.125,0.0,0.0,0.0
1695813851780,-0.57714844,-0.07519531,-0.055664062,16.90625,-4.34375,-19.96875,0.0,0.0,0.0
1695813851856,-0.6044922,0.125,0.08105469,9.4375,-7.8125,-16.5,0.0,0.0,0.0
1695813851859,-0.9765625,0.37109375,-0.001953125,-2.875,2.25,-11.625,0.0,0.0,0.0
1695813851907,-0.4736328,-0.09765625,-0.041992188,-8.125,17.3125,7.8125,0.0,0.0,0.0
1695813851955,-1.3466797,0.48242188,-0.0068359375,2.84375,42.40625,19.75,-90.3125,3.9375,-52.6875
1695813851979,-1.3154297,0.11816406,-0.4111328,-11.0,90.625,94.34375,0.0,0.0,0.0
1695813852029,-1.8125,-0.5566406,-0.045898438,19.09375,135.84375,103.125,0.0,0.0,0.0
1695813852054,-1.6103516,-0.1875,-0.052734375,-6.4375,129.875,78.40625,0.0,0.0,0.0
1695813852104,-1.2714844,0.13085938,-0.09082031,-36.03125,60.53125,70.71875,0.0,0.0,0.0
1695813852158,-0.6425781,0.08496094,-0.029296875,-36.9375,-12.15625,34.90625,0.0,0.0,0.0
1695813852180,-0.4794922,0.060546875,9.765625E-4,20.0625,-27.96875,-25.40625,0.0,0.0,0.0
1695813852228,-0.3828125,-0.18945312,-0.10839844,27.21875,-44.15625,-75.34375,0.0,0.0,0.0
1695813852254,-0.44140625,-0.11816406,-0.10839844,39.65625,-82.03125,-115.4375,0.0,0.0,0.0
1695813852306,-0.4658203,0.107421875,-0.11230469,63.21875,-76.1875,-136.5625,0.0,0.0,0.0
1695813852355,-1.2558594,0.015625,-0.21484375,77.8125,-31.75,-100.53125,0.0,0.0,0.0
1695813852380,-1.015625,0.20800781,-0.18945312,16.09375,-42.375,-13.8125,0.0,0.0,0.0
1695813852430,-0.45117188,0.10449219,-0.4765625,-67.875,-70.03125,19.5625,-90.0,5.3125,-56.4375
1695813852454,-1.5859375,-0.34472656,-0.041992188,3.71875,-9.34375,-1.3125,0.0,0.0,0.0
1695813852505,-1.2470703,-0.328125,-0.5126953,-33.59375,-14.78125,44.65625,0.0,0.0,0.0
1695813852554,-1.9130859,0.45410156,-0.42578125,-88.75,-8.0625,95.375,0.0,0.0,0.0
1695813852579,-1.3935547,0.07714844,0.17773438,-12.65625,46.1875,60.09375,0.0,0.0,0.0
1695813852629,-1.0664062,-0.3955078,0.26660156,88.3125,-20.71875,-25.96875,0.0,0.0,0.0
1695813852653,-1.2285156,-0.125,-0.056640625,34.59375,-38.65625,-53.3125,0.0,0.0,0.0
1695813852705,-0.78027344,-0.12402344,-0.00390625,41.375,-10.4375,-19.90625,0.0,0.0,0.0
1695813852788,-0.7763672,0.0048828125,-0.12597656,49.96875,-15.46875,-61.0625,0.0,0.0,0.0
1695813852789,-0.93359375,-0.038085938,-0.08691406,36.84375,-2.59375,-39.5,0.0,0.0,0.0
1695813852829,-0.3671875,-0.18847656,0.2685547,-6.375,-18.4375,-31.6875,0.0,0.0,0.0
1695813852854,-1.1289062,0.38671875,-0.12890625,28.125,-29.5625,-79.0625,0.0,0.0,0.0
1695813852905,-0.5888672,0.08300781,0.13183594,-15.9375,2.4375,-14.0,0.0,0.0,0.0
1695813852954,-0.9277344,0.17871094,0.10839844,50.59375,28.5,-53.84375,-94.375,-1.625,-52.25
1695813852979,-1.3232422,0.75878906,-0.3857422,32.28125,73.65625,27.4375,0.0,0.0,0.0
1695813853031,-1.4023438,-0.3544922,-0.064453125,39.78125,97.65625,110.59375,0.0,0.0,0.0
1695813853054,-1.6035156,-0.1171875,0.28320312,63.71875,98.625,122.25,0.0,0.0,0.0
1695813853105,-1.7763672,0.080078125,0.16113281,40.4375,48.625,145.4375,0.0,0.0,0.0
1695813853158,-1.5175781,0.22363281,0.040039062,99.03125,6.8125,141.28125,0.0,0.0,0.0
1695813853180,-1.2978516,0.030273438,0.12792969,141.53125,6.28125,119.5,0.0,0.0,0.0
1695813853230,-0.86816406,-0.13964844,0.024414062,177.59375,-22.78125,73.40625,0.0,0.0,0.0
1695813853255,-0.7324219,-0.24316406,-0.0625,201.53125,-38.21875,54.0625,0.0,0.0,0.0
1695813853304,-0.5810547,-0.27246094,-0.16601562,173.75,-15.09375,20.5,0.0,0.0,0.0
1695813853353,-0.6689453,-0.21582031,-0.2861328,74.6875,-38.46875,2.0,0.0,0.0,0.0
1695813853379,-0.7783203,0.14648438,-0.32226562,95.75,-20.59375,-35.59375,0.0,0.0,0.0
1695813853432,-1.1884766,0.5029297,-0.0029296875,94.90625,13.28125,-49.9375,-88.5,-11.1875,-68.3125
1695813853481,-0.68847656,0.13964844,0.0107421875,82.6875,-4.96875,-15.21875,0.0,0.0,0.0
1695813853505,-0.9707031,0.21679688,-0.39257812,107.21875,-40.53125,-7.53125,0.0,0.0,0.0
1695813853557,-1.1777344,0.10058594,-0.62402344,136.8125,-5.03125,0.46875,0.0,0.0,0.0
1695813853579,-1.4833984,-0.13183594,-0.5097656,33.5,-19.90625,18.71875,0.0,0.0,0.0
1695813853629,-1.4033203,-0.29101562,-0.40429688,-13.875,-19.71875,17.0625,0.0,0.0,0.0
1695813853655,-0.20117188,-0.11816406,0.045898438,-108.40625,-77.59375,68.09375,0.0,0.0,0.0
1695813853704,-0.80566406,-0.037109375,0.26757812,20.6875,-28.6875,-54.8125,0.0,0.0,0.0
1695813853754,-1.3037109,0.20214844,0.40039062,58.625,-44.875,-31.21875,0.0,0.0,0.0
1695813853780,-0.92871094,-0.53125,-0.2763672,35.9375,-17.15625,-10.75,0.0,0.0,0.0
1695813853830,-0.9472656,-0.13671875,0.09277344,-11.78125,-23.4375,-28.09375,0.0,0.0,0.0
1695813853853,-0.99316406,0.10058594,0.057617188,8.21875,-42.75,-60.5625,0.0,0.0,0.0
1695813853904,-0.921875,0.1484375,0.026367188,5.1875,-49.5625,-33.53125,0.0,0.0,0.0
1695813853955,-0.9970703,0.22558594,-0.049804688,20.0,-23.625,-14.84375,-96.4375,-20.1875,-51.0625
1695813853978,-0.8828125,0.29589844,-0.1328125,18.1875,-23.5,2.0625,0.0,0.0,0.0
1695813854030,-0.7578125,-0.10839844,-0.3203125,7.96875,-26.75,27.875,0.0,0.0,0.0
1695813854054,-0.82421875,-0.21777344,-0.18945312,-44.15625,28.78125,34.78125,0.0,0.0,0.0
1695813854104,-0.53515625,-0.08203125,0.38183594,-25.59375,18.34375,-5.375,0.0,0.0,0.0
1695813854154,-0.8876953,0.32226562,0.14550781,35.875,-11.5625,-13.375,0.0,0.0,0.0
1695813854178,-0.96972656,0.111328125,0.13085938,36.3125,-14.59375,21.28125,0.0,0.0,0.0
1695813854229,-0.8623047,0.076171875,-0.2109375,51.875,23.125,0.34375,0.0,0.0,0.0
1695813854255,-1.2480469,-0.14648438,-0.25195312,-1.0625,26.28125,10.84375,0.0,0.0,0.0
1695813854305,-1.6787109,0.23242188,-0.3486328,-60.25,67.71875,36.96875,0.0,0.0,0.0
1695813854354,-1.5449219,-0.09082031,-0.14257812,-20.34375,139.03125,119.1875,0.0,0.0,0.0
1695813854382,-1.2626953,-0.5839844,0.056640625,9.5625,145.84375,93.5625,0.0,0.0,0.0
1695813854428,-1.546875,0.27246094,-0.07421875,-42.6875,91.40625,94.46875,-95.25,-8.1875,-64.5625
1695813854454,-1.2197266,0.39453125,-0.19921875,-32.0,64.75,81.15625,0.0,0.0,0.0
1695813854504,-0.4267578,0.020507812,-0.13574219,18.21875,54.6875,35.75,0.0,0.0,0.0
1695813854554,-0.41992188,-0.00390625,-0.15039062,51.75,33.3125,-10.28125,0.0,0.0,0.0
1695813854580,-0.3642578,-0.08691406,-0.21289062,12.1875,-25.46875,-48.0625,0.0,0.0,0.0
1695813854630,-0.40820312,-0.01171875,-0.024414062,-42.5,-76.90625,-71.1875,0.0,0.0,0.0
1695813854654,-0.43359375,-0.040039062,0.07421875,-29.0,-86.5,-84.25,0.0,0.0,0.0
1695813854704,-0.6777344,0.26757812,-0.14160156,19.8125,-70.5625,-105.65625,0.0,0.0,0.0
1695813854755,-0.91503906,0.171875,-0.4248047,92.21875,-74.59375,-93.71875,0.0,0.0,0.0
1695813854779,-1.0917969,0.16308594,-0.12109375,97.875,-81.1875,-68.9375,0.0,0.0,0.0
1695813854830,-1.0273438,-0.01171875,-0.7421875,44.125,-88.34375,-37.75,0.0,0.0,0.0
1695813854855,-0.98339844,0.30859375,0.71972656,-163.65625,-11.0625,53.4375,0.0,0.0,0.0
1695813854904,-1.6386719,-1.2900391,-0.8955078,101.90625,25.625,2.5,0.0,0.0,0.0
1695813854956,-1.6796875,1.0976562,-0.69140625,-171.53125,27.03125,112.03125,-102.3125,-12.125,-53.625
1695813854987,-0.9589844,-0.5810547,0.70214844,35.09375,20.0625,37.65625,0.0,0.0,0.0
1695813855034,-1.3544922,0.2421875,-0.19238281,33.75,-74.53125,-49.5,0.0,0.0,0.0
1695813855054,-0.99609375,-0.0546875,-0.061523438,-4.03125,-45.59375,-2.6875,0.0,0.0,0.0
1695813855104,-0.86328125,-9.765625E-4,0.107421875,59.0625,-30.78125,-36.09375,0.0,0.0,0.0
1695813855154,-0.7558594,0.16015625,-0.11230469,36.1875,-23.5,-26.375,0.0,0.0,0.0
1695813855182,-0.5019531,-0.045898438,0.061523438,20.96875,-23.15625,-22.53125,0.0,0.0,0.0
1695813855230,-1.2324219,0.45214844,-0.14257812,6.5,-32.5625,-35.71875,0.0,0.0,0.0
1695813855255,-0.26367188,0.034179688,0.13671875,4.0625,18.1875,4.0625,0.0,0.0,0.0
1695813855305,-0.89453125,0.41796875,-0.42382812,3.71875,21.40625,-4.71875,0.0,0.0,0.0
1695813855355,-1.8720703,0.15039062,-0.20410156,7.90625,74.625,77.875,0.0,0.0,0.0
1695813855380,-1.3496094,-0.39453125,0.018554688,2.71875,136.9375,84.28125,0.0,0.0,0.0
1695813855431,-1.9580078,-0.19824219,0.14355469,-36.75,114.59375,106.4375,-102.4375,-5.8125,-61.125
1695813855455,-1.5703125,0.40429688,0.061523438,-67.53125,13.21875,152.34375,0.0,0.0,0.0
1695813855504,-0.78808594,0.27441406,-0.083984375,21.78125,-17.46875,114.96875,0.0,0.0,0.0
1695813855555,-0.5126953,0.17480469,-0.08496094,73.71875,2.0,30.375,0.0,0.0,0.0
1695813855582,-0.56152344,-0.16308594,-0.21191406,61.625,2.125,-58.90625,0.0,0.0,0.0
1695813855630,-0.43164062,-0.22851562,-0.23535156,82.03125,5.34375,-64.71875,0.0,0.0,0.0
1695813855654,-0.3642578,-0.14941406,-0.18164062,78.125,-13.25,-88.625,0.0,0.0,0.0
1695813855704,-0.2529297,-0.23144531,9.765625E-4,-52.8125,-79.0,-119.65625,0.0,0.0,0.0
1695813855755,-1.53125,0.041992188,-0.48242188,110.46875,-16.0625,-178.125,0.0,0.0,0.0
1695813855778,-1.5273438,0.7910156,-0.32617188,25.3125,-35.0625,-58.65625,0.0,0.0,0.0
1695813855829,-0.60058594,0.23828125,-0.50097656,-72.84375,-102.1875,19.9375,0.0,0.0,0.0
1695813855853,-0.81640625,-0.140625,0.82128906,-82.15625,-46.65625,-4.34375,0.0,0.0,0.0
1695813855904,-0.9658203,-1.1220703,-0.5078125,76.40625,-27.78125,3.40625,0.0,0.0,0.0
1695813855955,-2.0,1.7607422,0.71972656,42.53125,-78.125,93.25,-99.625,-10.75,-55.875
1695813855979,-0.7753906,-0.9394531,0.5214844,57.84375,33.0625,51.4375,0.0,0.0,0.0
1695813856030,-0.953125,-0.6689453,-0.0048828125,84.75,-23.75,-102.5625,0.0,0.0,0.0
1695813856054,-1.3388672,0.03515625,0.119140625,-27.78125,-58.5,-71.1875,0.0,0.0,0.0
1695813856105,-0.65234375,-0.17089844,0.13183594,-11.4375,-44.15625,-53.65625,0.0,0.0,0.0
1695813856180,-0.9375,-0.032226562,0.09082031,27.9375,-40.84375,-76.8125,0.0,0.0,0.0
1695813856185,-0.8330078,-0.053710938,0.111328125,-11.0,-73.375,-64.03125,0.0,0.0,0.0
1695813856229,-0.8720703,0.27929688,0.05078125,-4.96875,-43.28125,-64.78125,0.0,0.0,0.0
1695813856254,-1.1376953,0.23632812,-0.14453125,45.28125,-11.90625,-24.0625,0.0,0.0,0.0
1695813856304,-1.2431641,-0.032226562,-0.16699219,32.5625,43.9375,-11.5,0.0,0.0,0.0
1695813856355,-1.1474609,0.48828125,-0.17382812,13.84375,130.59375,43.5,0.0,0.0,0.0
1695813856379,-1.5322266,-0.14550781,0.0068359375,3.21875,196.53125,111.0625,0.0,0.0,0.0
1695813856429,-1.3359375,-0.69921875,0.5761719,55.03125,144.09375,120.09375,-91.8125,-21.125,-56.75
1695813856453,-1.5039062,0.11621094,0.37890625,74.21875,94.15625,148.375,0.0,0.0,0.0
1695813856504,-1.2851562,0.12695312,0.00390625,11.15625,7.0,149.15625,0.0,0.0,0.0
1695813856529,-0.9550781,-0.1015625,0.15039062,114.3125,11.28125,113.4375,0.0,0.0,0.0
1695813856580,-0.8515625,0.083984375,0.19433594,139.875,-8.6875,100.5,0.0,0.0,0.0
1695813856630,-0.6855469,-0.10253906,0.11621094,183.6875,-9.65625,56.9375,0.0,0.0,0.0
1695813856654,-0.47265625,-0.29101562,0.0703125,161.25,-18.09375,20.6875,0.0,0.0,0.0
1695813856707,-0.43945312,-0.36328125,-0.1796875,114.125,-15.8125,-10.34375,0.0,0.0,0.0
1695813856729,-0.7753906,-0.05859375,-0.43945312,115.875,-37.3125,-59.71875,0.0,0.0,0.0
1695813856779,-1.4941406,0.7636719,-0.7392578,153.3125,10.90625,-49.09375,0.0,0.0,0.0
1695813856829,-1.0722656,0.3779297,-0.14648438,18.71875,12.875,18.96875,0.0,0.0,0.0
1695813856854,-0.6699219,-0.16308594,0.53125,-41.9375,-44.375,35.875,0.0,0.0,0.0
1695813856905,-1.6601562,-0.76660156,-0.9580078,71.34375,-51.34375,-38.84375,0.0,0.0,0.0
1695813856954,-0.9267578,0.1484375,0.16503906,12.8125,-27.65625,17.3125,-94.9375,-24.125,-48.1875
1695813856979,-0.89160156,-0.47558594,0.16503906,92.34375,-34.1875,-49.8125,0.0,0.0,0.0
1695813857030,-1.1259766,-0.0703125,0.19921875,88.65625,-44.5,-67.40625,0.0,0.0,0.0
1695813857054,-1.0791016,-0.18847656,-0.0703125,30.25,-46.28125,-37.6875,0.0,0.0,0.0
1695813857104,-0.8466797,-0.18945312,-0.0029296875,53.03125,-36.875,-74.0625,0.0,0.0,0.0
1695813857129,-0.96484375,-9.765625E-4,0.051757812,55.65625,-49.875,-66.3125,0.0,0.0,0.0
1695813857181,-0.89941406,-0.12988281,0.08886719,37.59375,-52.625,-55.625,0.0,0.0,0.0
1695813857230,-0.8222656,-0.048828125,0.203125,49.78125,-44.21875,-60.875,0.0,0.0,0.0
1695813857279,-1.0546875,-0.029296875,0.07128906,59.96875,-47.75,-54.9375,0.0,0.0,0.0
1695813857305,-1.0605469,-0.083984375,0.0029296875,34.53125,-39.3125,-42.25,0.0,0.0,0.0
1695813857329,-1.1523438,0.15234375,0.013671875,32.5625,-11.5625,-24.375,0.0,0.0,0.0
1695813857405,-1.0537109,0.115234375,-0.048828125,10.59375,20.375,23.25,0.0,0.0,0.0
1695813857431,-1.4453125,0.061523438,0.0146484375,-4.65625,56.875,55.40625,-83.6875,-32.5,-20.1875
1695813857455,-1.2978516,-0.025390625,-0.4140625,37.09375,138.90625,107.28125,0.0,0.0,0.0
1695813857503,-1.4306641,-0.33496094,0.1875,46.0625,196.15625,149.59375,0.0,0.0,0.0
1695813857528,-1.3857422,-0.90625,0.42382812,-24.125,115.875,129.6875,0.0,0.0,0.0
1695813857579,-1.2021484,-0.047851562,-0.11230469,-45.1875,62.375,125.96875,0.0,0.0,0.0
1695813857629,-0.96875,0.026367188,0.068359375,-14.0,42.09375,124.125,0.0,0.0,0.0
1695813857653,-0.6777344,0.0029296875,0.05078125,33.0625,38.75,98.96875,0.0,0.0,0.0
1695813857707,-0.25,-0.1640625,0.040039062,47.59375,36.53125,40.75,0.0,0.0,0.0
1695813857729,-0.111328125,-0.13183594,-0.072265625,29.65625,0.0,-6.4375,0.0,0.0,0.0
1695813857779,-0.19921875,-0.10253906,-0.06542969,33.125,-41.15625,-52.8125,0.0,0.0,0.0
1695813857855,-0.24804688,-0.17382812,0.030273438,-19.59375,-68.0,-106.34375,0.0,0.0,0.0
1695813857856,-0.90234375,0.12109375,-0.21484375,98.5,-37.4375,-133.875,0.0,0.0,0.0
1695813857906,-1.6123047,0.390625,-0.4091797,122.78125,-49.5625,-73.4375,0.0,0.0,0.0
1695813857955,-0.8046875,0.07910156,-0.41015625,-39.75,-74.59375,-7.71875,-97.375,-18.5625,-33.8125
1695813858006,-1.2080078,-0.0068359375,-0.046875,-40.0,-45.96875,-20.21875,0.0,0.0,0.0
1695813858030,-1.2539062,-0.4921875,-0.7832031,15.65625,-50.5,28.71875,0.0,0.0,0.0
1695813858054,-2.0,1.4404297,0.029296875,-139.65625,-30.28125,167.03125,0.0,0.0,0.0
1695813858105,-0.25390625,-1.1064453,0.73339844,-2.34375,62.0,73.21875,0.0,0.0,0.0
1695813858129,-1.1767578,-0.06640625,0.043945312,80.96875,-47.125,-77.84375,0.0,0.0,0.0
1695813858179,-0.96777344,0.12695312,-0.047851562,-50.125,-41.65625,31.71875,0.0,0.0,0.0
1695813858230,-0.7578125,-0.0234375,-0.016601562,66.28125,-1.25,0.28125,0.0,0.0,0.0
1695813858255,-0.4765625,0.044921875,-0.044921875,15.90625,-31.3125,-38.28125,0.0,0.0,0.0
1695813858304,-0.56347656,0.09765625,-0.03125,49.78125,-39.6875,-71.4375,0.0,0.0,0.0
1695813858329,-1.5830078,0.28710938,0.043945312,-42.3125,-13.6875,7.0,0.0,0.0,0.0
1695813858378,-0.33984375,-0.06933594,0.0029296875,-22.46875,28.78125,5.46875,0.0,0.0,0.0
1695813858430,-0.7548828,0.36816406,-0.3671875,-44.3125,26.03125,-23.75,-93.3125,-16.75,-29.3125
1695813858453,-1.4921875,0.38867188,-0.11816406,-87.90625,55.34375,85.3125,0.0,0.0,0.0
1695813858505,-1.7548828,0.08496094,0.06933594,63.78125,132.4375,124.3125,0.0,0.0,0.0
1695813858529,-1.8925781,-0.3876953,-0.18261719,36.90625,105.8125,95.6875,0.0,0.0,0.0
1695813858580,-1.3017578,0.16601562,-0.20019531,-39.0625,40.875,91.125,0.0,0.0,0.0
1695813858629,-0.7236328,0.2705078,-0.15234375,-4.34375,-5.25,20.1875,0.0,0.0,0.0
1695813858655,-0.5839844,-0.0029296875,-0.12988281,51.6875,20.25,-27.125,0.0,0.0,0.0
1695813858705,-0.24707031,-0.25,-0.21289062,55.03125,-11.375,-47.375,0.0,0.0,0.0
1695813858731,-0.18554688,-0.11328125,-0.16796875,15.25,-66.90625,-61.90625,0.0,0.0,0.0
1695813858782,-0.390625,0.024414062,-0.0126953125,-53.0,-96.5,-107.4375,0.0,0.0,0.0
1695813858830,-0.99121094,0.22851562,-0.23046875,-26.9375,-37.5625,-105.71875,0.0,0.0,0.0
1695813858853,-1.1943359,0.1953125,-0.111328125,70.84375,-17.53125,-63.25,0.0,0.0,0.0
1695813858905,-0.7871094,0.20410156,-0.0146484375,-8.4375,-66.65625,-29.75,0.0,0.0,0.0
1695813858954,-1.0585938,-0.26367188,-0.8535156,10.65625,-72.46875,-42.1875,-92.5625,-16.0,-28.25
1695813858980,-1.0673828,0.21777344,0.25097656,-60.375,-18.8125,44.84375,0.0,0.0,0.0
1695813859029,-1.5195312,-0.45507812,-0.34277344,23.84375,2.375,28.0,0.0,0.0,0.0
1695813859055,-2.0,1.1943359,-0.87890625,-146.625,21.65625,159.15625,0.0,0.0,0.0
1695813859105,-1.0195312,-0.87597656,0.6660156,33.5625,38.3125,24.75,0.0,0.0,0.0
1695813859129,-1.2626953,-0.23925781,0.08886719,2.3125,-61.1875,-90.96875,0.0,0.0,0.0
1695813859179,-1.4111328,0.40722656,-0.2109375,-22.46875,-47.25,-39.0625,0.0,0.0,0.0
1695813859230,-0.7089844,0.037109375,-0.057617188,12.4375,-12.53125,-38.21875,0.0,0.0,0.0
1695813859256,-0.6435547,0.15625,-0.07324219,45.875,-1.3125,-50.5,0.0,0.0,0.0
1695813859305,-0.4921875,0.29101562,-0.072265625,10.3125,-30.78125,-32.96875,0.0,0.0,0.0
1695813859331,-1.0097656,0.13964844,0.31640625,10.375,2.125,26.15625,0.0,0.0,0.0
1695813859380,-0.49414062,0.055664062,-0.0859375,37.875,13.96875,20.6875,0.0,0.0,0.0
1695813859430,-0.66796875,-0.39453125,0.064453125,-3.6875,16.15625,-4.28125,-93.0,-18.25,-21.375
1695813859455,-0.8623047,0.60546875,-0.099609375,-27.40625,25.0625,-9.28125,0.0,0.0,0.0
1695813859506,-1.3642578,0.080078125,0.125,-10.6875,69.5625,62.71875,0.0,0.0,0.0
1695813859554,-1.53125,-0.04296875,-0.20996094,-6.375,80.0625,79.625,0.0,0.0,0.0
1695813859578,-2.0,-0.07128906,-0.0546875,-17.09375,96.96875,115.34375,0.0,0.0,0.0
1695813859629,-1.4052734,0.057617188,0.0068359375,-36.15625,65.0,122.25,0.0,0.0,0.0
1695813859655,-0.8886719,0.14648438,-0.026367188,-35.59375,6.875,85.5,0.0,0.0,0.0
1695813859705,-0.6738281,0.21875,0.0087890625,7.125,1.3125,35.03125,0.0,0.0,0.0
1695813859728,-0.5185547,0.028320312,-0.064453125,23.375,-23.09375,-2.03125,0.0,0.0,0.0
1695813859778,-0.31152344,-0.16113281,-0.15332031,48.1875,-25.09375,-48.34375,0.0,0.0,0.0
1695813859830,-0.25585938,-0.26464844,-0.04296875,80.0625,-16.3125,-88.15625,0.0,0.0,0.0
1695813859853,-0.41210938,-0.0859375,0.001953125,11.34375,-45.5,-113.71875,0.0,0.0,0.0
1695813859904,-1.1083984,0.047851562,-0.31835938,22.375,-26.0625,-140.34375,0.0,0.0,0.0
1695813859956,-1.2773438,0.28027344,-0.07324219,7.625,-25.03125,-78.5625,-94.8125,-15.6875,-29.3125
1695813859979,-0.89160156,0.08203125,-0.22558594,-23.75,-79.59375,-24.84375,0.0,0.0,0.0
1695813860029,-1.4667969,-0.10253906,-0.81347656,-7.21875,-37.6875,-39.25,0.0,0.0,0.0
1695813860055,-1.2011719,0.009765625,0.40820312,-63.625,-60.5,83.96875,0.0,0.0,0.0
1695813860105,-1.6367188,0.14160156,0.18261719,15.4375,42.96875,61.25,0.0,0.0,0.0
1695813860129,-1.7871094,0.20117188,0.2763672,-7.15625,41.0,23.59375,0.0,0.0,0.0
1695813860179,-0.9140625,-0.45507812,0.36328125,6.34375,1.3125,-17.21875,0.0,0.0,0.0
1695813860231,-1.2236328,0.07714844,0.13867188,34.53125,-38.03125,-68.6875,0.0,0.0,0.0
1695813860254,-0.9863281,0.072265625,-0.055664062,21.84375,-30.09375,-50.3125,0.0,0.0,0.0
1695813860306,-0.7714844,-0.038085938,-0.080078125,-0.1875,-27.0625,-42.875,0.0,0.0,0.0
1695813860329,-0.7519531,0.038085938,-0.0859375,13.90625,-8.625,-35.84375,0.0,0.0,0.0
1695813860380,-0.39941406,0.15722656,-0.15039062,-0.1875,1.9375,-18.15625,0.0,0.0,0.0
1695813860430,-0.63378906,0.11621094,0.15625,14.21875,17.875,3.34375,-92.125,-19.4375,-20.9375
1695813860454,-0.86328125,0.5410156,0.115234375,39.84375,-23.03125,34.59375,0.0,0.0,0.0
1695813860504,-0.8105469,-0.40234375,-0.2548828,10.84375,50.875,79.625,0.0,0.0,0.0
1695813860529,-0.97265625,-0.20019531,0.14550781,43.375,42.40625,-9.65625,0.0,0.0,0.0
1695813860580,-1.5644531,0.33007812,-0.3232422,-76.0,69.9375,71.21875,0.0,0.0,0.0
1695813860630,-1.7587891,-0.064453125,-0.0859375,3.90625,146.15625,129.1875,0.0,0.0,0.0
1695813860655,-1.6689453,-0.27441406,-0.07714844,-2.59375,137.0625,88.71875,0.0,0.0,0.0
1695813860705,-1.4316406,0.087890625,-0.08203125,-4.15625,65.40625,88.71875,0.0,0.0,0.0
1695813860729,-0.8300781,0.29296875,-0.11328125,-4.34375,-27.84375,37.03125,0.0,0.0,0.0
1695813860783,-0.6347656,0.20019531,-0.07128906,60.21875,-24.96875,-34.6875,0.0,0.0,0.0
1695813860830,-0.27246094,-0.25,-0.1875,71.8125,-27.90625,-71.71875,0.0,0.0,0.0
1695813860853,-0.28710938,-0.28222656,-0.26367188,70.3125,-57.03125,-84.3125,0.0,0.0,0.0
1695813860905,-0.41503906,-0.19042969,-0.02734375,21.46875,-85.03125,-102.3125,0.0,0.0,0.0
1695813860929,-1.1328125,0.036132812,-0.2109375,20.96875,-42.8125,-99.5,-96.125,-12.875,-30.8125
1695813860978,-1.0488281,0.08105469,-0.14941406,-28.59375,-23.21875,-23.4375,0.0,0.0,0.0
1695813861029,-0.60058594,0.06542969,-0.15332031,-34.4375,-70.21875,-13.9375,0.0,0.0,0.0
1695813861079,-1.0263672,-0.23144531,-0.44921875,-22.71875,-62.5,-24.25,0.0,0.0,0.0
1695813861103,-1.4091797,-0.265625,0.14746094,-56.28125,-29.5625,46.25,0.0,0.0,0.0
1695813861129,-1.8457031,0.24902344,0.14746094,17.8125,-15.75,10.90625,0.0,0.0,0.0
1695813861181,-1.1689453,0.86816406,-0.37402344,-70.625,37.53125,155.8125,0.0,0.0,0.0
1695813861230,-0.64746094,-0.5625,0.36328125,44.59375,8.03125,3.53125,0.0,0.0,0.0
1695813861253,-1.4960938,0.11621094,-0.056640625,2.59375,-39.4375,-86.125,0.0,0.0,0.0
1695813861305,-0.8457031,0.024414062,-0.08886719,19.8125,-35.125,-0.4375,0.0,0.0,0.0
1695813861329,-0.87109375,0.14746094,-0.00390625,46.1875,-26.1875,-46.65625,0.0,0.0,0.0
1695813861381,-0.6669922,0.12109375,-0.19824219,14.09375,-22.90625,-32.96875,0.0,0.0,0.0
1695813861430,-0.9394531,0.15136719,-9.765625E-4,29.15625,-6.59375,-39.3125,-94.1875,-18.6875,-19.125
1695813861454,-0.35058594,-0.17675781,-0.017578125,-24.96875,23.71875,-11.6875,0.0,0.0,0.0
1695813861505,-0.81933594,0.21484375,0.2109375,-2.875,22.3125,-38.03125,0.0,0.0,0.0
1695813861531,-1.6484375,0.31933594,-0.46484375,-43.40625,46.96875,38.3125,0.0,0.0,0.0
1695813861579,-1.3623047,-0.36132812,-0.1796875,-3.375,73.78125,106.78125,0.0,0.0,0.0
1695813861628,-1.3808594,-0.296875,-0.10058594,-2.46875,105.875,92.875,0.0,0.0,0.0
1695813861655,-1.75,0.03515625,-0.024414062,-21.75,62.71875,81.21875,0.0,0.0,0.0
1695813861704,-1.109375,0.1328125,-0.16015625,-23.8125,17.6875,61.25,0.0,0.0,0.0
1695813861729,-0.71972656,0.09765625,0.021484375,29.40625,-16.1875,34.15625,0.0,0.0,0.0
1695813861781,-0.5546875,-0.11621094,-0.08105469,62.71875,-7.71875,-15.09375,0.0,0.0,0.0
1695813861830,-0.5029297,-0.27246094,-0.08984375,43.8125,-32.71875,-28.53125,0.0,0.0,0.0
1695813861854,-0.4091797,-0.25878906,-0.083984375,13.0,-60.75,-55.0625,0.0,0.0,0.0
1695813861905,-0.41210938,-0.060546875,9.765625E-4,12.0,-54.21875,-102.1875,0.0,0.0,0.0
1695813861931,-1.1503906,0.028320312,-0.2998047,39.09375,-6.53125,-124.53125,-98.6875,-18.25,-24.8125
1695813861983,-1.4667969,0.34472656,-0.8408203,123.40625,-2.75,-60.1875,0.0,0.0,0.0
1695813862031,-0.86328125,0.9550781,-0.3359375,-37.78125,-35.46875,64.75,0.0,0.0,0.0
1695813862054,-0.7011719,0.11230469,-0.2841797,-105.59375,-33.03125,58.09375,0.0,0.0,0.0
1695813862104,-1.2431641,-0.12597656,1.0205078,50.03125,-15.46875,-1.78125,0.0,0.0,0.0
1695813862129,-1.0068359,-1.3291016,-0.21386719,128.03125,-15.625,33.0625,0.0,0.0,0.0
1695813862179,-1.5400391,0.640625,0.5683594,111.375,-48.59375,16.90625,0.0,0.0,0.0
1695813862232,-1.4150391,-0.33789062,-0.029296875,77.9375,21.28125,12.625,0.0,0.0,0.0
1695813862255,-0.6738281,-1.0615234,0.30664062,50.59375,-16.0625,-61.40625,0.0,0.0,0.0
1695813862309,-1.4863281,-0.046875,-0.041015625,-11.625,-62.625,-124.71875,0.0,0.0,0.0
1695813862329,-0.7998047,0.037109375,0.125,-2.40625,-60.0625,-62.28125,0.0,0.0,0.0
1695813862378,-0.8076172,-0.19433594,0.14160156,31.25,-51.21875,-87.84375,0.0,0.0,0.0
1695813862429,-0.81640625,0.14355469,-0.032226562,18.125,-68.6875,-82.09375,-87.3125,-22.0,-3.8125
1695813862453,-0.8720703,0.20214844,0.09472656,7.3125,-37.84375,-83.9375,0.0,0.0,0.0
1695813862503,-1.1123047,0.030273438,-0.095703125,73.03125,-13.125,-49.09375,0.0,0.0,0.0
1695813862530,-1.2236328,0.0234375,-0.125,15.84375,38.0625,-10.625,0.0,0.0,0.0
1695813862582,-1.1669922,0.25195312,0.06542969,5.125,84.9375,20.125,0.0,0.0,0.0
1695813862630,-1.4697266,0.31054688,0.015625,63.46875,186.8125,103.125,0.0,0.0,0.0
1695813862654,-1.7128906,-0.7636719,0.4345703,-1.71875,196.15625,145.25,0.0,0.0,0.0
1695813862703,-1.2285156,-0.41992188,0.5605469,35.875,97.75,127.71875,0.0,0.0,0.0
1695813862730,-1.4609375,0.17382812,0.24902344,8.15625,41.0,146.59375,0.0,0.0,0.0
1695813862780,-1.1484375,-0.016601562,0.03125,75.90625,-6.375,134.25,0.0,0.0,0.0
1695813862830,-0.9433594,0.17382812,0.27734375,164.71875,4.6875,112.34375,0.0,0.0,0.0
1695813862856,-0.7675781,-0.24121094,0.1640625,186.875,21.15625,74.3125,0.0,0.0,0.0
1695813862910,-0.7167969,-0.2998047,-0.038085938,182.90625,29.21875,58.46875,0.0,0.0,0.0
1695813862982,-0.5722656,-0.27734375,-0.25585938,124.6875,29.53125,38.4375,-93.875,8.75,-26.0
1695813862984,-0.5546875,-0.26367188,-0.22753906,57.59375,-1.25,14.21875,0.0,0.0,0.0
1695813863030,-0.578125,0.05859375,-0.19824219,15.25,-15.59375,-10.34375,0.0,0.0,0.0
1695813863054,-0.8730469,0.453125,-0.40039062,23.59375,-16.0,-28.65625,0.0,0.0,0.0
1695813863104,-1.2392578,0.7246094,-0.2919922,81.03125,14.875,-40.53125,0.0,0.0,0.0
1695813863131,-0.94433594,0.36035156,-0.25585938,112.28125,7.5,8.90625,0.0,0.0,0.0
1695813863180,-0.85839844,0.043945312,-0.4140625,55.90625,-39.75,36.125,0.0,0.0,0.0
1695813863255,-1.4189453,-0.13085938,-0.3173828,-24.3125,-60.3125,1.875,0.0,0.0,0.0
1695813863256,-2.0,0.7441406,-0.265625,-1.78125,-8.375,53.8125,0.0,0.0,0.0
1695813863304,-0.08496094,-0.7792969,-0.40722656,-39.03125,-64.34375,47.03125,0.0,0.0,0.0
1695813863380,-1.0009766,-0.6328125,0.32226562,39.09375,-69.71875,-127.6875,0.0,0.0,0.0
1695813863382,-1.2529297,0.4296875,0.44140625,75.96875,-72.46875,-33.40625,0.0,0.0,0.0
1695813863429,-0.7392578,-0.53222656,0.056640625,-29.25,-47.0,-27.34375,-89.5625,8.3125,-27.0625
1695813863453,-1.1289062,0.25878906,-0.045898438,51.8125,-38.15625,-66.375,0.0,0.0,0.0
1695813863503,-0.90722656,-0.037109375,-0.17089844,19.28125,-39.875,-31.3125,0.0,0.0,0.0
1695813863530,-0.89453125,0.083984375,-0.20800781,7.1875,-24.75,-24.84375,0.0,0.0,0.0
1695813863581,-0.80566406,0.35839844,-0.22363281,-8.75,-10.40625,9.03125,0.0,0.0,0.0
1695813863629,-0.9501953,0.5419922,-0.1796875,-42.125,4.375,58.21875,0.0,0.0,0.0
1695813863654,-0.56152344,-0.58691406,-0.2841797,-19.53125,32.40625,62.5,0.0,0.0,0.0
1695813863704,-0.5839844,-0.0029296875,0.2861328,-10.75,11.09375,-8.3125,0.0,0.0,0.0
1695813863731,-0.6699219,0.2626953,0.20410156,-73.9375,-25.40625,-12.84375,0.0,0.0,0.0
1695813863779,-1.0595703,0.5517578,0.20214844,21.03125,15.84375,25.875,0.0,0.0,0.0
1695813863829,-0.7685547,0.24902344,-0.1015625,14.21875,36.96875,28.1875,0.0,0.0,0.0
1695813863854,-1.34375,-0.14550781,-0.2705078,-6.53125,35.3125,30.5625,0.0,0.0,0.0
1695813863905,-2.0,0.16796875,-0.16894531,-10.40625,78.34375,116.125,0.0,0.0,0.0
1695813863929,-1.8154297,-0.44335938,-0.28710938,-21.0,124.5625,122.59375,-92.6875,7.5625,-30.1875
1695813863981,-1.2382812,0.11035156,-0.041992188,-54.34375,88.53125,93.25,0.0,0.0,0.0
1695813864030,-0.5800781,0.31152344,-0.03125,-46.71875,61.6875,27.21875,0.0,0.0,0.0
1695813864053,-0.6152344,0.29492188,-0.08203125,5.78125,33.1875,-19.53125,0.0,0.0,0.0
1695813864103,-0.41015625,-0.0234375,-0.111328125,37.34375,-2.15625,-45.0,0.0,0.0,0.0
1695813864130,-0.26660156,-0.32617188,-0.14746094,17.5,-57.625,-73.75,0.0,0.0,0.0
1695813864179,-0.34375,-0.16699219,0.061523438,11.875,-89.4375,-111.03125,0.0,0.0,0.0
1695813864229,-0.7685547,0.30664062,-0.06347656,20.4375,-77.03125,-132.65625,0.0,0.0,0.0
1695813864253,-1.3408203,0.43652344,-0.5048828,23.25,-47.25,-86.375,0.0,0.0,0.0
1695813864304,-0.8496094,0.3095703,-0.10449219,22.1875,-70.09375,-40.0,0.0,0.0,0.0
1695813864328,-0.75097656,-0.33007812,-0.41308594,7.84375,-96.15625,-37.4375,0.0,0.0,0.0
1695813864380,-1.2128906,-0.21582031,0.15527344,-40.40625,-18.5625,12.5,0.0,0.0,0.0
1695813864430,-1.3095703,0.4111328,0.3857422,-24.0625,18.46875,38.0,-98.875,-0.6875,-16.4375
1695813864454,-1.7275391,1.4208984,-0.022460938,-115.5,25.0625,184.3125,0.0,0.0,0.0
1695813864505,-0.2734375,-0.74121094,0.67285156,2.65625,43.125,45.15625,0.0,0.0,0.0
1695813864529,-1.2460938,0.0107421875,0.16894531,18.34375,-50.78125,-76.375,0.0,0.0,0.0
1695813864580,-1.1181641,0.3955078,0.1328125,-11.4375,-53.46875,-2.15625,0.0,0.0,0.0
1695813864629,-0.6425781,0.0546875,-0.064453125,76.65625,-21.1875,-46.15625,0.0,0.0,0.0
1695813864653,-1.0185547,0.125,-0.19335938,31.53125,5.40625,-56.96875,0.0,0.0,0.0
1695813864703,-0.55566406,0.1015625,0.125,15.90625,-9.59375,-50.5,0.0,0.0,0.0
1695813864728,-0.88964844,0.37304688,0.11425781,25.3125,3.34375,-29.6875,0.0,0.0,0.0
1695813864781,-0.8125,0.45117188,-0.12988281,-4.71875,16.9375,0.28125,0.0,0.0,0.0
1695813864831,-1.5429688,-0.1171875,-0.24804688,33.4375,100.9375,78.71875,0.0,0.0,0.0
1695813864881,-1.7666016,-0.33398438,-0.020507812,-4.28125,125.84375,92.5,0.0,0.0,0.0
1695813864905,-1.1386719,-0.029296875,-0.001953125,-54.6875,94.53125,104.59375,0.0,0.0,0.0
1695813864930,-1.1699219,0.15136719,-0.0087890625,-27.3125,48.8125,119.375,-102.4375,19.8125,-20.9375
1695813864979,-1.1220703,0.21777344,-0.16210938,11.9375,45.9375,70.125,0.0,0.0,0.0
1695813865030,-0.6191406,0.24902344,-0.08300781,37.15625,-10.15625,6.21875,0.0,0.0,0.0
1695813865054,-0.48535156,-0.1328125,-0.22460938,39.78125,-31.375,-54.40625,0.0,0.0,0.0
1695813865105,-0.625,-0.24316406,-0.21191406,32.15625,-57.5625,-77.40625,0.0,0.0,0.0
1695813865131,-0.44921875,-0.0029296875,-0.16113281,28.5,-46.21875,-105.53125,0.0,0.0,0.0
1695813865179,-0.5263672,0.08886719,-0.14550781,7.0625,-45.0,-127.625,0.0,0.0,0.0
1695813865230,-1.3378906,0.4345703,-0.50097656,46.6875,-33.53125,-93.65625,0.0,0.0,0.0
1695813865254,-1.2744141,0.55371094,-0.54785156,62.4375,-27.59375,-17.71875,0.0,0.0,0.0
1695813865305,-0.9238281,0.4560547,-0.4248047,-1.84375,-26.625,63.03125,0.0,0.0,0.0
1695813865329,-0.7861328,0.048828125,-0.31152344,-8.5,-37.375,22.75,0.0,0.0,0.0
1695813865380,-2.0,0.31054688,0.34570312,1.8125,-41.6875,-42.375,0.0,0.0,0.0
1695813865430,-0.4111328,-2.0,-1.9658203,169.90625,-131.3125,116.375,-93.3125,9.9375,-22.4375
1695813865455,-0.9316406,-0.08300781,0.9589844,-58.5625,-49.34375,-39.1875,0.0,0.0,0.0
1695813865505,-1.6074219,0.22851562,0.43652344,-12.09375,-76.25,-115.96875,0.0,0.0,0.0
1695813865532,-0.9951172,-0.103515625,-0.051757812,-53.71875,-54.40625,-16.375,0.0,0.0,0.0
1695813865580,-0.74121094,-0.21679688,0.19433594,3.84375,-74.40625,-79.0,0.0,0.0,0.0
1695813865629,-0.92285156,-0.07519531,0.19238281,-34.3125,-85.40625,-111.96875,0.0,0.0,0.0
1695813865655,-0.9814453,0.032226562,0.26757812,-58.96875,-67.59375,-74.0,0.0,0.0,0.0
1695813865704,-0.8378906,0.0048828125,-0.032226562,-39.75,-81.875,-60.3125,0.0,0.0,0.0
