# Sensor type: Thingy
# Activity type: Miscellaneous movements
# Activity subtype: Normal
# Subject id: s1862623
# Notes: sitting down and up
timestamp,accel_x,accel_y,accel_z,gyro_x,gyro_y,gyro_z,mag_x,mag_y,mag_z
1695729214149,-0.8574219,0.13867188,0.828125,0.90625,104.40625,-8.4375,0.0,0.0,0.0
1695729214178,-0.8125,0.19433594,0.71875,14.75,111.125,-27.40625,0.0,0.0,0.0
1695729214238,-0.78808594,0.13183594,0.515625,-20.71875,122.90625,-16.875,0.0,0.0,0.0
1695729214268,-0.7949219,0.171875,0.35253906,-3.4375,131.75,-13.1875,0.0,0.0,0.0
1695729214298,-0.50390625,0.27929688,0.50097656,33.1875,121.6875,-59.09375,0.0,0.0,0.0
1695729214358,-0.4013672,0.2919922,0.5986328,-1.84375,118.8125,147.5,0.0,0.0,0.0
1695729214388,-0.3388672,0.25585938,0.13574219,18.34375,152.8125,-136.5,0.0,0.0,0.0
1695729214418,-0.9296875,-0.10058594,0.14550781,-47.875,164.96875,-79.59375,0.0,0.0,0.0
1695729214478,-1.0283203,-9.765625E-4,0.020507812,-79.4375,105.5,-28.6875,0.0,0.0,0.0
1695729214508,-0.8515625,0.09765625,-0.3466797,-64.34375,75.96875,-37.96875,0.0,0.0,0.0
1695729214539,-0.9667969,0.16699219,-0.42285156,30.1875,18.65625,6.03125,-76.9375,-24.6875,-142.6875
1695729214598,-1.0605469,0.005859375,-0.2578125,47.65625,26.28125,9.6875,0.0,0.0,0.0
1695729214629,-1.1035156,-0.16015625,-0.22363281,-18.6875,16.84375,3.90625,0.0,0.0,0.0
1695729214658,-1.0703125,-0.045898438,-0.24414062,-35.46875,-28.8125,-3.6875,0.0,0.0,0.0
1695729214718,-0.9238281,0.12402344,-0.2626953,-41.9375,-29.6875,-0.3125,0.0,0.0,0.0
1695729214748,-0.9589844,0.16894531,-0.2578125,-31.9375,-57.5625,29.78125,0.0,0.0,0.0
1695729214778,-0.7138672,-0.041015625,-0.453125,3.84375,-15.28125,50.59375,0.0,0.0,0.0
1695729214838,-1.0283203,-0.15722656,0.18847656,128.09375,-105.3125,57.65625,0.0,0.0,0.0
1695729214868,-1.078125,0.16503906,0.8984375,56.625,-248.375,37.65625,0.0,0.0,0.0
1695729214898,0.037109375,0.59765625,0.40820312,-66.0625,-182.09375,11.15625,0.0,0.0,0.0
1695729214959,-1.0839844,0.22949219,0.1640625,102.34375,-210.84375,62.3125,0.0,0.0,0.0
1695729214988,-0.5078125,-0.32226562,0.7089844,-61.96875,-69.90625,-76.84375,0.0,0.0,0.0
1695729215018,-1.4140625,-0.2783203,0.33691406,-61.84375,-123.5625,57.84375,0.0,0.0,0.0
1695729215079,-0.84472656,0.17285156,0.8671875,-3.5625,-102.90625,13.03125,-70.8125,-17.0625,-111.1875
1695729215110,-0.63183594,0.32910156,0.7421875,-2.09375,-76.4375,21.96875,0.0,0.0,0.0
1695729215140,-0.8339844,0.41015625,0.91308594,1.4375,-93.71875,32.21875,0.0,0.0,0.0
1695729215201,-0.69140625,-0.083984375,0.90625,-6.0625,-77.21875,19.34375,0.0,0.0,0.0
1695729215230,-0.78515625,0.19042969,0.8564453,-43.65625,-36.5,45.875,0.0,0.0,0.0
1695729215260,-0.76171875,0.15722656,0.828125,-10.6875,-26.625,22.5625,0.0,0.0,0.0
1695729215319,-0.7294922,0.080078125,0.7128906,6.625,-48.46875,10.1875,0.0,0.0,0.0
1695729215349,-0.5878906,0.1171875,1.1230469,48.3125,-72.09375,9.8125,0.0,0.0,0.0
1695729215382,-0.43359375,0.16308594,1.0810547,23.25,-57.15625,0.53125,0.0,0.0,0.0
1695729215439,-0.52734375,0.44335938,0.96972656,3.65625,-69.53125,-17.78125,0.0,0.0,0.0
1695729215469,-0.06542969,0.265625,0.53808594,-39.03125,-69.40625,-41.9375,0.0,0.0,0.0
1695729215498,0.021484375,0.18066406,0.4970703,-13.1875,-56.71875,-41.40625,0.0,0.0,0.0
1695729215559,-0.1875,0.26464844,1.0673828,126.3125,-48.53125,4.875,-53.125,-15.25,-91.125
1695729215589,-0.1484375,0.21582031,0.8574219,-49.8125,-28.65625,-15.59375,0.0,0.0,0.0
1695729215619,0.064453125,0.051757812,0.7451172,1.28125,-5.8125,-8.4375,0.0,0.0,0.0
1695729215680,-0.15136719,0.14746094,0.8779297,-10.28125,1.4375,7.5625,0.0,0.0,0.0
1695729215712,-0.20800781,0.21679688,0.9375,20.5625,4.1875,1.875,0.0,0.0,0.0
1695729215739,-0.13574219,0.20605469,0.85546875,2.125,26.90625,-17.96875,0.0,0.0,0.0
1695729215799,-0.21582031,0.18945312,0.890625,-14.65625,24.15625,-15.59375,0.0,0.0,0.0
1695729215828,-0.35058594,0.13769531,0.90625,6.28125,21.21875,-15.6875,0.0,0.0,0.0
1695729215861,-0.17382812,0.17578125,0.85839844,0.96875,29.03125,-15.75,0.0,0.0,0.0
1695729215919,-0.2890625,0.28125,0.8388672,10.0625,35.875,-24.6875,0.0,0.0,0.0
1695729215949,-0.24414062,0.23339844,0.8457031,22.125,42.65625,-12.53125,0.0,0.0,0.0
1695729215980,-0.34570312,0.18261719,0.8720703,-12.09375,44.65625,-8.4375,0.0,0.0,0.0
1695729216039,-0.38378906,0.16210938,0.79003906,6.09375,50.9375,-5.5,0.0,0.0,0.0
1695729216068,-0.3642578,0.23828125,0.73535156,2.375,55.71875,-4.34375,-58.5,-14.9375,-95.3125
1695729216130,-0.4169922,0.17578125,0.86816406,6.28125,71.625,-6.4375,0.0,0.0,0.0
1695729216161,-0.59472656,0.2890625,1.5664062,-11.625,30.1875,13.40625,0.0,0.0,0.0
1695729216188,-0.24316406,0.23339844,0.67285156,-87.96875,13.0,-2.09375,0.0,0.0,0.0
1695729216219,-0.76464844,0.4501953,1.03125,119.0,35.375,74.03125,0.0,0.0,0.0
1695729216279,-0.390625,0.015625,0.7949219,-23.6875,100.09375,-37.0625,0.0,0.0,0.0
1695729216308,-0.90234375,0.5986328,1.2011719,7.25,74.5,47.40625,0.0,0.0,0.0
1695729216339,-0.9404297,-0.123046875,0.5546875,-64.53125,100.21875,29.53125,0.0,0.0,0.0
1695729216399,-0.96777344,0.32226562,0.7753906,14.9375,121.3125,4.0,0.0,0.0,0.0
1695729216429,-0.49414062,-0.20898438,0.32421875,-47.9375,155.9375,-62.625,0.0,0.0,0.0
1695729216459,-2.0,0.053710938,0.22460938,-59.90625,-12.28125,315.0,0.0,0.0,0.0
1695729216519,-0.12792969,0.14941406,0.7128906,42.65625,422.34375,-377.28125,0.0,0.0,0.0
1695729216549,-0.90527344,0.39453125,-0.10839844,-55.0,88.71875,-53.1875,-76.625,-14.8125,-127.25
1695729216579,-0.35546875,0.37402344,0.1484375,136.15625,115.78125,-59.34375,0.0,0.0,0.0
1695729216640,-1.5566406,-0.0048828125,-0.3310547,-120.1875,97.09375,-15.6875,0.0,0.0,0.0
1695729216669,-1.0068359,0.0087890625,0.07421875,15.625,65.53125,-4.53125,0.0,0.0,0.0
1695729216700,-1.0478516,-0.15429688,-0.20117188,-42.1875,11.875,-15.53125,0.0,0.0,0.0
1695729216759,-0.9013672,-0.08203125,-0.24316406,-6.125,4.625,-18.5625,0.0,0.0,0.0
1695729216790,-0.9980469,-0.009765625,-0.1640625,10.40625,-34.125,-5.5625,0.0,0.0,0.0
1695729216820,-1.1064453,0.16308594,-0.005859375,56.125,-27.65625,14.75,0.0,0.0,0.0
1695729216879,-0.796875,0.16015625,0.13867188,42.96875,-147.125,37.34375,0.0,0.0,0.0
1695729216909,-0.625,0.14941406,0.37402344,53.28125,-171.21875,30.4375,0.0,0.0,0.0
1695729216939,-0.7246094,0.47851562,0.7373047,41.90625,-77.46875,46.0,0.0,0.0,0.0
1695729216999,-0.8095703,0.44433594,0.14648438,-76.84375,-110.96875,24.09375,0.0,0.0,0.0
1695729217030,-0.3251953,-0.13867188,0.55371094,137.5625,-171.875,-16.0,0.0,0.0,0.0
1695729217059,-0.96484375,-0.5078125,0.6904297,-11.3125,-157.59375,49.90625,-71.6875,-16.625,-113.75
1695729217121,-0.45117188,0.22460938,0.45703125,-82.78125,-37.1875,7.125,0.0,0.0,0.0
1695729217151,-1.0673828,0.54589844,0.8652344,-55.625,-85.09375,16.09375,0.0,0.0,0.0
1695729217178,-0.5449219,0.14257812,1.0048828,-9.0,-95.09375,20.8125,0.0,0.0,0.0
1695729217239,-0.86816406,0.13964844,0.9970703,-39.5625,-59.15625,17.375,0.0,0.0,0.0
1695729217269,-0.7578125,0.09375,0.88964844,-32.375,-34.4375,17.875,0.0,0.0,0.0
1695729217299,-0.6738281,0.076171875,0.63964844,13.09375,-12.46875,12.5,0.0,0.0,0.0
1695729217360,-0.51464844,0.123046875,0.7675781,31.53125,-39.125,21.03125,0.0,0.0,0.0
1695729217389,-0.6015625,0.1171875,1.1943359,19.40625,-74.96875,22.625,0.0,0.0,0.0
1695729217420,-0.57421875,0.23046875,1.3212891,53.15625,-47.8125,16.28125,0.0,0.0,0.0
1695729217480,-0.37304688,0.21484375,0.6455078,-32.96875,-36.6875,-13.9375,0.0,0.0,0.0
1695729217511,-0.18554688,0.26464844,0.49316406,-15.53125,-81.9375,-1.3125,0.0,0.0,0.0
1695729217540,0.12109375,0.14941406,0.8408203,57.25,-85.9375,-9.59375,-53.125,-11.375,-93.5
1695729217600,-0.20507812,0.19628906,1.1152344,18.21875,-17.59375,4.0,0.0,0.0,0.0
1695729217629,-0.06933594,0.123046875,0.6611328,-50.125,-19.96875,-33.15625,0.0,0.0,0.0
1695729217659,-0.09472656,0.24023438,0.96972656,27.4375,-26.5625,-27.0625,0.0,0.0,0.0
1695729217719,-0.15625,0.09765625,0.76953125,-28.6875,-4.96875,-35.71875,0.0,0.0,0.0
1695729217749,-0.038085938,0.16894531,0.86328125,38.25,6.6875,-24.625,0.0,0.0,0.0
1695729217779,-0.18554688,0.3232422,0.9482422,28.0,7.8125,-19.90625,0.0,0.0,0.0
1695729217839,-0.17773438,0.17773438,0.7138672,-9.34375,19.6875,-21.3125,0.0,0.0,0.0
1695729217871,-0.23339844,0.203125,0.8769531,28.3125,28.3125,-20.34375,0.0,0.0,0.0
1695729217899,-0.21972656,0.23925781,0.89746094,8.90625,40.875,-24.0625,0.0,0.0,0.0
1695729217959,-0.2783203,0.2109375,0.87402344,-11.5625,48.6875,-27.3125,0.0,0.0,0.0
1695729217990,-0.34765625,0.20214844,0.734375,-23.625,56.75,-24.125,0.0,0.0,0.0
1695729218019,-0.3671875,0.25,0.7050781,27.625,58.8125,-18.875,0.0,0.0,0.0
1695729218079,-0.32128906,0.1171875,0.78222656,41.0625,59.0625,-3.5625,-59.25,-13.1875,-96.375
1695729218111,-0.4013672,0.29589844,0.83984375,-6.59375,77.25,-12.09375,0.0,0.0,0.0
1695729218145,-0.796875,0.5625,1.6894531,1.9375,-55.3125,28.65625,0.0,0.0,0.0
1695729218200,-0.0625,0.11035156,0.5527344,-22.65625,75.5,-34.625,0.0,0.0,0.0
1695729218230,-1.0810547,0.71484375,1.1113281,94.03125,8.59375,71.15625,0.0,0.0,0.0
1695729218260,-0.25878906,0.0068359375,0.6113281,-104.1875,73.71875,-40.53125,0.0,0.0,0.0
1695729218319,-0.7626953,0.39941406,1.1210938,8.71875,69.5,13.40625,0.0,0.0,0.0
1695729218350,-0.8173828,0.18164062,0.7792969,-37.4375,93.5625,13.28125,0.0,0.0,0.0
1695729218410,-0.9902344,0.21386719,0.61035156,-2.875,89.15625,5.90625,0.0,0.0,0.0
1695729218439,-0.82910156,0.21289062,0.6347656,8.71875,89.71875,6.9375,0.0,0.0,0.0
1695729218470,-0.6533203,0.09277344,0.41796875,-18.875,148.0625,-25.53125,0.0,0.0,0.0
1695729218500,-0.5800781,0.08691406,0.35839844,-3.5625,128.46875,-52.8125,0.0,0.0,0.0
1695729218560,0.51171875,0.0,0.73828125,-42.0,265.125,-139.125,-73.625,-11.375,-119.125
1695729218589,-0.6503906,0.1640625,-0.19628906,-54.59375,146.46875,-70.03125,0.0,0.0,0.0
1695729218620,-1.421875,-0.0068359375,-0.001953125,-7.65625,147.6875,-1.46875,0.0,0.0,0.0
1695729218680,-0.6230469,0.16113281,0.31347656,-38.96875,70.1875,-50.96875,0.0,0.0,0.0
1695729218709,-0.8671875,0.10546875,-0.08203125,-47.9375,67.375,-18.25,0.0,0.0,0.0
1695729218740,-1.1904297,-0.03125,-0.3046875,-45.5625,18.1875,-8.8125,0.0,0.0,0.0
1695729218800,-1.1337891,0.10839844,-0.11621094,0.65625,32.53125,-13.1875,0.0,0.0,0.0
1695729218830,-1.015625,0.022460938,-0.07910156,0.15625,1.4375,-0.8125,0.0,0.0,0.0
1695729218859,-0.80566406,-0.060546875,-0.27246094,12.0,-16.1875,9.03125,0.0,0.0,0.0
1695729218950,-1.0185547,0.041015625,-0.28808594,-12.53125,-33.875,18.0,0.0,0.0,0.0
1695729218952,-0.93652344,0.0107421875,0.01171875,131.09375,-37.78125,36.46875,0.0,0.0,0.0
1695729218979,-0.7597656,-0.029296875,0.5761719,226.5625,-199.1875,48.5625,0.0,0.0,0.0
1695729219040,-0.7265625,0.5253906,0.7548828,-115.625,-182.28125,-10.5,0.0,0.0,0.0
1695729219069,-1.1269531,0.0390625,0.53515625,-238.96875,294.34375,-183.0625,-76.9375,-18.875,-125.0
1695729219099,-0.96484375,0.036132812,-0.6220703,46.375,-254.09375,33.4375,0.0,0.0,0.0
1695729219160,-1.1865234,-0.3173828,1.2226562,79.75,-139.25,11.15625,0.0,0.0,0.0
1695729219189,-0.6972656,-0.08984375,0.2548828,17.25,-122.625,1.6875,0.0,0.0,0.0
1695729219220,-0.53515625,0.43164062,1.0693359,44.78125,-66.3125,35.8125,0.0,0.0,0.0
1695729219280,-0.9921875,0.45898438,0.796875,-1.34375,-60.4375,26.15625,0.0,0.0,0.0
1695729219310,-0.8046875,0.19140625,0.9199219,-26.3125,-62.09375,33.0625,0.0,0.0,0.0
1695729219341,-0.67285156,-0.0234375,0.69628906,-16.625,-44.875,30.375,0.0,0.0,0.0
1695729219399,-0.58984375,0.1171875,0.8173828,28.3125,-38.84375,38.0,0.0,0.0,0.0
1695729219430,-0.52734375,0.23828125,0.64453125,12.0,-48.78125,56.375,0.0,0.0,0.0
1695729219459,-0.5888672,0.3173828,1.0800781,85.8125,-73.8125,28.65625,0.0,0.0,0.0
1695729219519,-0.44726562,0.328125,1.4296875,-46.65625,-36.5625,-9.28125,0.0,0.0,0.0
1695729219550,-0.70996094,0.33203125,0.6767578,-52.375,-61.0625,-22.65625,-57.4375,-8.1875,-97.375
1695729219579,-0.13085938,0.2705078,0.38671875,-17.71875,-47.8125,-36.21875,0.0,0.0,0.0
1695729219640,-0.25976562,0.5673828,1.1054688,155.0,-117.25,23.0,0.0,0.0,0.0
1695729219669,-0.22167969,0.19921875,0.9667969,-133.125,-41.46875,-10.28125,0.0,0.0,0.0
1695729219701,-0.022460938,-0.05078125,0.46972656,-20.03125,-33.03125,-11.5625,0.0,0.0,0.0
1695729219760,-0.17382812,0.30566406,1.0898438,64.875,-22.59375,16.53125,0.0,0.0,0.0
1695729219790,-0.076171875,0.17773438,0.703125,-19.96875,-13.9375,-1.84375,0.0,0.0,0.0
1695729219820,-0.11816406,0.23730469,0.9716797,18.84375,-5.625,3.21875,0.0,0.0,0.0
1695729219879,-0.15625,0.296875,0.8535156,-7.34375,13.78125,-5.15625,0.0,0.0,0.0
1695729219909,-0.16113281,0.21191406,0.76464844,-0.875,9.09375,-7.34375,0.0,0.0,0.0
1695729219939,-0.12792969,0.27246094,0.8925781,14.5,15.71875,-13.03125,0.0,0.0,0.0
1695729219999,-0.10058594,0.3076172,0.8222656,-10.28125,19.5625,-6.1875,0.0,0.0,0.0
1695729220028,-0.16308594,0.25,0.78222656,20.75,14.5,4.6875,0.0,0.0,0.0
1695729220060,-0.15820312,0.35351562,0.9921875,11.28125,33.4375,-1.53125,-49.9375,-11.5,-90.9375
1695729220121,-0.29296875,0.24023438,0.74902344,1.8125,45.625,4.0625,0.0,0.0,0.0
1695729220152,-0.29003906,0.33789062,0.8925781,-4.59375,60.90625,-10.28125,0.0,0.0,0.0
1695729220179,-0.3076172,0.20214844,0.6982422,-1.59375,71.15625,-8.9375,0.0,0.0,0.0
1695729220239,-0.4111328,0.24414062,0.8828125,10.84375,66.5625,-7.65625,0.0,0.0,0.0
1695729220269,-0.41210938,0.23632812,0.8515625,2.0,83.84375,-19.3125,0.0,0.0,0.0
1695729220299,-0.65234375,0.49609375,1.4736328,-62.6875,20.6875,-9.90625,0.0,0.0,0.0
1695729220359,-0.12402344,0.15429688,0.75878906,-26.5,34.46875,-12.90625,0.0,0.0,0.0
1695729220390,-0.7451172,0.6875,1.2373047,53.6875,4.6875,56.0,0.0,0.0,0.0
1695729220419,-0.77441406,-0.09277344,0.54296875,-78.75,128.09375,-33.46875,0.0,0.0,0.0
1695729220480,-0.703125,0.38378906,1.0898438,-8.1875,85.1875,15.3125,0.0,0.0,0.0
1695729220510,-0.8847656,-0.0107421875,0.6767578,-18.4375,93.5,25.5,0.0,0.0,0.0
1695729220539,-0.9082031,0.32617188,0.7236328,19.9375,115.03125,7.5,-68.375,-12.25,-106.875
1695729220601,-0.5517578,0.09375,0.39746094,-25.65625,165.5,-29.5,0.0,0.0,0.0
1695729220629,-1.015625,0.5175781,0.56152344,154.46875,-178.3125,405.4375,0.0,0.0,0.0
1695729220688,0.06933594,-0.072265625,0.5078125,-0.5,457.75,-400.84375,0.0,0.0,0.0
1695729220719,-0.8984375,0.037109375,-0.041015625,-68.8125,93.4375,-203.875,0.0,0.0,0.0
1695729220751,-1.1386719,0.24609375,-0.0078125,-12.34375,180.21875,-4.03125,0.0,0.0,0.0
1695729220779,-0.7265625,0.31640625,0.00390625,-34.1875,82.1875,-14.40625,0.0,0.0,0.0
1695729220839,-1.03125,0.19335938,-0.15429688,-21.9375,24.65625,35.9375,0.0,0.0,0.0
1695729220871,-0.890625,-0.018554688,-0.16699219,-19.125,35.6875,41.4375,0.0,0.0,0.0
1695729220899,-1.1162109,-0.22851562,-0.19726562,-37.125,40.375,14.875,0.0,0.0,0.0
1695729220959,-1.1542969,-0.17285156,-0.15722656,-51.59375,8.78125,-9.40625,0.0,0.0,0.0
1695729220990,-0.9609375,0.001953125,-0.34570312,-4.59375,11.875,-17.84375,0.0,0.0,0.0
1695729221020,-0.8515625,0.13574219,-0.24902344,-1.125,-3.625,-3.875,0.0,0.0,0.0
1695729221079,-0.8779297,0.11035156,-0.10449219,66.75,-2.8125,24.21875,-77.125,-21.5625,-140.4375
1695729221109,-1.2929688,0.24707031,0.5136719,217.5625,-103.28125,44.84375,0.0,0.0,0.0
1695729221140,-1.0175781,0.42871094,0.55078125,8.09375,-181.21875,67.71875,0.0,0.0,0.0
1695729221200,-0.46875,0.4091797,0.28125,-267.90625,-107.0625,-73.6875,0.0,0.0,0.0
1695729221233,-1.4726562,-0.07910156,0.17578125,71.15625,10.84375,16.34375,0.0,0.0,0.0
1695729221260,-0.5410156,-0.5283203,-0.20117188,55.78125,-576.1875,63.9375,0.0,0.0,0.0
1695729221320,-1.3964844,-0.140625,1.234375,10.40625,-195.75,33.3125,0.0,0.0,0.0
1695729221349,-0.703125,0.12207031,0.51953125,-13.5625,-69.09375,-7.53125,0.0,0.0,0.0
1695729221380,-0.95703125,0.23632812,0.8095703,-19.25,-80.09375,-19.59375,0.0,0.0,0.0
1695729221441,-0.89453125,0.076171875,0.9121094,-7.53125,-91.8125,-9.46875,0.0,0.0,0.0
1695729221470,-0.9091797,0.022460938,0.63183594,1.15625,-54.53125,21.40625,0.0,0.0,0.0
1695729221500,-0.7451172,0.043945312,0.75390625,3.71875,-66.53125,6.8125,0.0,0.0,0.0
1695729221560,-0.6796875,-0.01953125,0.79003906,15.375,-54.875,5.65625,-64.1875,-17.8125,-102.5
1695729221589,-0.5341797,0.16503906,0.8203125,66.5625,-65.125,34.46875,0.0,0.0,0.0
1695729221619,-0.49902344,0.29003906,1.1396484,57.96875,-60.875,49.71875,0.0,0.0,0.0
1695729221679,-0.66015625,0.28027344,1.1357422,14.28125,-44.5625,17.875,0.0,0.0,0.0
1695729221710,-0.65234375,0.24414062,0.88964844,-41.34375,-42.0625,18.65625,0.0,0.0,0.0
1695729221739,-0.3720703,0.16308594,0.64746094,-7.78125,-42.375,-26.375,0.0,0.0,0.0
1695729221804,-0.12890625,0.34960938,0.76171875,-27.40625,-51.71875,-32.65625,0.0,0.0,0.0
1695729221891,-0.27539062,0.23730469,0.9091797,-7.46875,-49.75,-6.5,0.0,0.0,0.0
1695729221894,-0.091796875,0.115234375,0.80078125,5.0,-36.46875,12.1875,0.0,0.0,0.0
1695729221923,-0.047851562,0.061523438,1.0195312,11.53125,-34.9375,4.1875,0.0,0.0,0.0
1695729222012,-0.2109375,-0.034179688,0.76660156,-15.15625,-27.59375,11.03125,0.0,0.0,0.0
1695729222014,-0.17675781,0.13476562,0.9980469,14.09375,-26.6875,10.25,0.0,0.0,0.0
1695729222101,-0.115234375,0.15722656,0.80859375,-14.0,-13.25,-9.125,0.0,0.0,0.0
1695729222105,-0.14355469,0.125,0.9140625,0.65625,-8.0625,-7.28125,-51.125,-14.0625,-89.625
1695729222108,-0.060546875,0.047851562,0.74316406,-20.15625,5.46875,-3.3125,0.0,0.0,0.0
1695729222161,-0.15429688,0.22167969,0.88378906,4.875,20.75,3.90625,0.0,0.0,0.0
1695729222220,-0.19726562,0.15429688,0.9394531,1.875,39.0,-15.34375,0.0,0.0,0.0
1695729222222,-0.1640625,0.06347656,0.78808594,-10.75,22.3125,-5.09375,0.0,0.0,0.0
1695729222280,-0.25976562,0.171875,0.86035156,4.8125,44.0,-10.15625,0.0,0.0,0.0
1695729222340,-0.17285156,0.123046875,0.9248047,-9.65625,55.90625,-23.8125,0.0,0.0,0.0
1695729222342,-0.24121094,0.033203125,0.7783203,14.625,55.65625,-18.6875,0.0,0.0,0.0
1695729222400,-0.3095703,0.13183594,0.96972656,22.5625,58.28125,-20.40625,0.0,0.0,0.0
1695729222430,-0.359375,0.15820312,0.8623047,16.65625,54.1875,-12.71875,0.0,0.0,0.0
1695729222459,-0.5107422,0.13769531,0.8671875,9.6875,73.65625,-21.875,0.0,0.0,0.0
1695729222519,-0.64746094,0.18359375,0.8642578,-1.25,62.4375,-16.875,0.0,0.0,0.0
1695729222548,-0.6533203,0.103515625,1.3681641,20.6875,-25.21875,8.28125,-61.375,-15.25,-98.0
1695729222578,0.07910156,0.4091797,0.41796875,-120.8125,66.8125,-13.375,0.0,0.0,0.0
1695729222640,-0.5996094,0.82714844,1.9638672,170.875,-100.65625,95.8125,0.0,0.0,0.0
1695729222668,-0.44335938,-0.3984375,0.25390625,-61.0,109.375,-41.6875,0.0,0.0,0.0
1695729222701,-0.7675781,0.234375,1.2373047,31.0625,66.6875,36.96875,0.0,0.0,0.0
1695729222758,-0.8388672,0.15234375,0.8183594,-7.875,73.96875,51.0625,0.0,0.0,0.0
1695729222789,-0.88671875,0.13574219,0.6982422,6.8125,95.8125,40.6875,0.0,0.0,0.0
1695729222819,-0.8652344,0.11230469,0.50878906,2.0,153.5,-9.40625,0.0,0.0,0.0
1695729222879,-0.71191406,-9.765625E-4,0.54785156,28.78125,137.125,-53.78125,0.0,0.0,0.0
1695729222909,-0.94628906,0.26953125,0.43554688,-75.625,113.21875,151.09375,0.0,0.0,0.0
1695729222970,-0.46289062,0.31347656,0.13183594,31.46875,221.1875,-169.625,0.0,0.0,0.0
1695729223000,-1.2519531,0.24511719,0.038085938,-109.75,179.6875,67.3125,0.0,0.0,0.0
1695729223030,-0.8857422,0.32226562,0.23046875,103.75,62.0625,-22.0625,0.0,0.0,0.0
1695729223060,-0.79003906,0.08203125,0.18652344,-91.25,47.34375,-21.4375,-77.125,-19.1875,-133.125
1695729223121,-0.8154297,-0.15332031,-0.36035156,-116.28125,37.40625,-5.21875,0.0,0.0,0.0
1695729223151,-1.0927734,-0.123046875,-0.18164062,-17.03125,41.65625,-1.46875,0.0,0.0,0.0
1695729223179,-1.1074219,-0.018554688,0.06933594,37.15625,20.5,-8.3125,0.0,0.0,0.0
1695729223239,-1.0537109,0.040039062,-0.3046875,-48.96875,-11.125,-29.6875,0.0,0.0,0.0
1695729223271,-0.6689453,0.45507812,-0.13183594,-90.78125,46.3125,-24.90625,0.0,0.0,0.0
1695729223298,-0.9091797,0.20214844,0.091796875,153.71875,-113.78125,77.375,0.0,0.0,0.0
1695729223359,-1.0673828,-0.1484375,0.640625,151.53125,-115.5625,60.78125,0.0,0.0,0.0
1695729223390,-0.48242188,0.15136719,0.13769531,-73.8125,-79.53125,-11.0,0.0,0.0,0.0
1695729223419,-0.89746094,0.103515625,0.6621094,-7.15625,-31.625,10.46875,0.0,0.0,0.0
1695729223479,-1.4755859,-0.022460938,0.2919922,-91.875,73.78125,-35.65625,0.0,0.0,0.0
1695729223509,0.10253906,0.11328125,-0.3388672,156.28125,-568.8125,59.4375,0.0,0.0,0.0
1695729223540,-0.828125,0.2763672,1.0673828,2.5,-153.75,43.625,-72.75,-17.375,-115.125
1695729223599,-0.9199219,-0.08691406,0.5283203,27.6875,-72.84375,-19.1875,0.0,0.0,0.0
1695729223630,-0.85253906,0.125,0.7763672,0.21875,-97.125,14.9375,0.0,0.0,0.0
1695729223660,-0.7480469,0.30273438,0.7841797,-3.1875,-82.03125,23.1875,0.0,0.0,0.0
1695729223719,-0.6845703,0.14550781,0.8964844,-9.40625,-69.15625,10.59375,0.0,0.0,0.0
1695729223749,-0.58496094,0.05859375,1.0576172,-19.90625,-65.375,5.21875,0.0,0.0,0.0
1695729223779,-0.59277344,0.045898438,0.84765625,-3.8125,-37.5,24.15625,0.0,0.0,0.0
1695729223839,-0.515625,0.15917969,0.5703125,11.53125,-33.46875,26.03125,0.0,0.0,0.0
1695729223869,-0.4091797,0.16308594,0.98535156,66.21875,-69.40625,28.96875,0.0,0.0,0.0
1695729223901,-0.33984375,0.1953125,1.1113281,50.53125,-30.21875,22.875,0.0,0.0,0.0
1695729223959,-0.88183594,0.33007812,1.5126953,41.71875,-14.78125,8.84375,0.0,0.0,0.0
1695729223989,-0.7216797,0.26660156,0.5761719,-113.65625,-26.6875,-36.34375,0.0,0.0,0.0
1695729224021,-0.19824219,0.27734375,0.52441406,33.96875,-96.34375,-35.46875,0.0,0.0,0.0
1695729224079,-0.028320312,0.29296875,0.8564453,28.0625,-73.3125,-27.1875,-54.0,-12.5625,-92.75
1695729224108,-0.30273438,0.35546875,0.83496094,17.125,-73.9375,3.71875,0.0,0.0,0.0
1695729224140,-0.021484375,0.24902344,0.8847656,49.125,-48.53125,-24.5625,0.0,0.0,0.0
1695729224198,0.08203125,0.15039062,0.89941406,-55.3125,-15.46875,4.8125,0.0,0.0,0.0
1695729224230,-0.11816406,0.09082031,0.7050781,-45.125,-22.65625,18.71875,0.0,0.0,0.0
1695729224259,-0.0703125,0.15039062,0.921875,22.1875,5.78125,2.71875,0.0,0.0,0.0
1695729224319,0.09765625,0.19042969,0.74316406,-3.1875,-2.03125,15.5,0.0,0.0,0.0
1695729224349,-0.060546875,0.13476562,0.88964844,32.9375,9.5625,17.1875,0.0,0.0,0.0
1695729224379,-0.3017578,0.35546875,0.97265625,-33.21875,36.1875,-16.0,0.0,0.0,0.0
1695729224440,-0.1875,0.01171875,0.61816406,-29.375,32.09375,-20.65625,0.0,0.0,0.0
1695729224469,-0.31835938,0.25390625,0.99902344,62.90625,28.5625,-3.625,0.0,0.0,0.0
1695729224499,-0.028320312,0.28222656,0.8261719,9.9375,65.15625,-19.25,0.0,0.0,0.0
1695729224558,-0.26171875,0.2626953,0.9394531,22.1875,55.71875,5.46875,-54.4375,-12.125,-92.4375
1695729224588,-0.2939453,0.22558594,0.9316406,-2.09375,71.46875,1.3125,0.0,0.0,0.0
1695729224619,-0.3359375,0.18457031,0.76953125,-25.15625,73.59375,4.125,0.0,0.0,0.0
1695729224680,-0.46875,0.16113281,0.7949219,-0.125,77.3125,5.21875,0.0,0.0,0.0
1695729224710,-0.55371094,0.25390625,1.0742188,2.4375,68.28125,-5.03125,0.0,0.0,0.0
1695729224739,-0.7060547,0.28125,1.1630859,24.34375,-48.78125,11.59375,0.0,0.0,0.0
1695729224800,0.13867188,0.12011719,0.61816406,-71.0,66.09375,-29.5625,0.0,0.0,0.0
1695729224830,-0.5800781,0.64941406,1.0742188,-5.21875,32.15625,63.78125,0.0,0.0,0.0
1695729224860,-0.75878906,0.078125,0.8730469,-124.65625,61.5,13.40625,0.0,0.0,0.0
1695729224921,-0.7578125,0.14160156,1.15625,27.09375,57.84375,-1.3125,0.0,0.0,0.0
1695729224951,-0.6425781,-0.18164062,0.8955078,-24.5,77.625,10.0625,0.0,0.0,0.0
1695729224979,-0.8066406,0.07714844,0.7373047,10.84375,111.96875,-10.28125,0.0,0.0,0.0
1695729225040,-1.0390625,0.08886719,0.62890625,26.90625,110.53125,-19.78125,0.0,0.0,0.0
1695729225069,-1.1464844,0.14453125,0.53515625,35.75,106.0625,9.125,-70.1875,-16.1875,-111.625
1695729225103,-0.7841797,0.30273438,0.63378906,51.4375,40.75,69.75,0.0,0.0,0.0
1695729225160,-0.10449219,0.35839844,0.6035156,8.15625,93.1875,136.59375,0.0,0.0,0.0
1695729225189,0.42773438,-0.08203125,0.50097656,-69.84375,257.125,-82.59375,0.0,0.0,0.0
1695729225250,-0.3671875,0.19140625,-0.072265625,52.78125,113.15625,-122.34375,0.0,0.0,0.0
1695729225282,-1.5703125,0.19140625,-0.08300781,-149.1875,284.40625,89.875,0.0,0.0,0.0
1695729225309,-0.9082031,0.06542969,0.0390625,-1.53125,82.9375,-47.0,0.0,0.0,0.0
1695729225339,-0.8076172,-0.017578125,-0.11230469,34.84375,35.375,-21.9375,0.0,0.0,0.0
1695729225400,-0.9873047,-0.018554688,-0.19042969,-11.625,22.375,-5.625,0.0,0.0,0.0
1695729225429,-1.0322266,0.001953125,-0.30273438,-38.90625,-7.15625,-5.3125,0.0,0.0,0.0
1695729225459,-1.3427734,0.10644531,-0.15234375,-5.75,-19.59375,-5.5,0.0,0.0,0.0
1695729225519,-0.76464844,0.044921875,-0.15039062,-33.9375,-20.71875,-10.625,0.0,0.0,0.0
1695729225550,-0.95703125,-0.0087890625,-0.3310547,-52.03125,-17.53125,11.28125,-76.375,-23.375,-140.0
1695729225579,-0.9091797,-0.16796875,-0.23632812,-40.65625,-60.125,29.90625,0.0,0.0,0.0
1695729225638,-0.734375,0.032226562,0.13574219,69.6875,-36.5,12.875,0.0,0.0,0.0
1695729225669,-1.1992188,0.08984375,0.51953125,116.0,-22.53125,-1.0,0.0,0.0,0.0
1695729225699,-1.2919922,0.11816406,0.13574219,84.21875,-87.0,80.0,0.0,0.0,0.0
1695729225759,-0.5136719,0.25976562,0.6308594,-83.9375,-138.5,-47.0,0.0,0.0,0.0
1695729225790,-0.6621094,0.38476562,0.21289062,-73.0625,70.71875,-88.53125,0.0,0.0,0.0
1695729225819,-0.20507812,-0.29003906,0.07519531,100.6875,-404.3125,73.46875,0.0,0.0,0.0
1695729225880,-1.2041016,-0.5058594,0.75390625,-17.96875,-150.28125,32.8125,0.0,0.0,0.0
1695729225909,-0.09277344,0.5107422,0.9941406,60.09375,-188.625,10.46875,0.0,0.0,0.0
1695729225940,-0.8232422,0.14257812,0.41308594,-76.1875,-77.21875,16.28125,0.0,0.0,0.0
1695729225999,-0.7763672,0.20605469,0.96484375,-21.8125,-76.90625,21.71875,0.0,0.0,0.0
1695729226035,-0.765625,-0.072265625,0.6748047,-10.625,-56.46875,11.15625,0.0,0.0,0.0
1695729226059,-0.89941406,0.2548828,0.8544922,39.40625,-43.59375,29.21875,-63.875,-14.9375,-103.875
1695729226118,-0.7050781,0.37695312,0.6923828,-20.03125,-39.8125,5.59375,0.0,0.0,0.0
1695729226150,-0.4638672,0.23339844,0.93652344,36.71875,-40.65625,3.21875,0.0,0.0,0.0
1695729226182,-0.5029297,0.17773438,0.7246094,12.9375,-30.65625,18.71875,0.0,0.0,0.0
1695729226240,-0.5683594,0.390625,0.6689453,108.03125,-36.5625,19.8125,0.0,0.0,0.0
1695729226270,-0.43359375,0.4326172,0.9277344,72.90625,-45.84375,3.21875,0.0,0.0,0.0
1695729226300,-0.34960938,0.5332031,0.9316406,33.3125,-40.46875,16.65625,0.0,0.0,0.0
1695729226359,-0.54296875,0.43164062,1.2890625,11.75,-54.28125,21.15625,0.0,0.0,0.0
1695729226389,-0.77441406,0.62109375,0.9707031,-74.28125,-36.15625,8.03125,0.0,0.0,0.0
1695729226419,-0.2861328,0.24902344,0.62890625,-0.1875,-105.25,4.8125,0.0,0.0,0.0
1695729226478,-0.021484375,0.13085938,0.62109375,-50.84375,-82.28125,7.0,0.0,0.0,0.0
1695729226508,-0.08984375,0.2763672,0.859375,23.59375,-54.28125,-0.9375,0.0,0.0,0.0
1695729226540,-0.12792969,0.234375,0.8251953,-11.1875,-49.34375,4.9375,-48.875,-9.4375,-90.9375
1695729226600,0.12207031,0.19335938,0.7050781,13.21875,-20.84375,-21.0625,0.0,0.0,0.0
1695729226629,0.06640625,0.22363281,0.82421875,17.9375,-7.78125,2.71875,0.0,0.0,0.0
1695729226660,-0.12988281,0.2939453,0.78027344,4.0,24.71875,-11.90625,0.0,0.0,0.0
1695729226720,-0.040039062,0.44921875,0.8017578,5.53125,22.09375,-17.03125,0.0,0.0,0.0
1695729226749,0.024414062,0.33789062,0.72558594,18.78125,38.625,-17.15625,0.0,0.0,0.0
1695729226780,-0.3154297,0.28125,0.9091797,1.09375,36.84375,-4.84375,0.0,0.0,0.0
1695729226839,-0.18066406,0.26953125,0.7285156,-1.3125,48.9375,-26.4375,0.0,0.0,0.0
1695729226870,-0.140625,0.47460938,0.8466797,23.53125,49.4375,-19.59375,0.0,0.0,0.0
1695729226900,-0.08691406,0.41015625,0.8720703,14.375,51.8125,-13.375,0.0,0.0,0.0
1695729226960,-0.3310547,0.25390625,0.80078125,1.5,56.625,-5.21875,0.0,0.0,0.0
1695729226990,-0.4013672,0.23144531,0.890625,-7.34375,54.5,-24.90625,0.0,0.0,0.0
1695729227019,-0.4326172,0.23046875,0.8359375,8.03125,55.40625,-46.65625,0.0,0.0,0.0
1695729227079,-0.36328125,0.22753906,0.515625,-15.75,59.0,-44.21875,-58.5,-9.25,-98.75
1695729227110,-0.6611328,0.60058594,1.6328125,37.8125,17.75,-38.28125,0.0,0.0,0.0
1695729227139,-0.0146484375,0.45507812,0.6777344,-22.90625,17.6875,-17.65625,0.0,0.0,0.0
1695729227198,-0.86035156,0.83691406,0.8671875,21.53125,2.71875,47.65625,0.0,0.0,0.0
1695729227229,-0.8251953,0.16699219,0.7363281,-52.625,80.1875,-6.375,0.0,0.0,0.0
1695729227258,-0.4873047,0.72265625,1.3164062,86.34375,22.875,45.53125,0.0,0.0,0.0
1695729227319,-0.81152344,0.06542969,0.5888672,-113.78125,129.375,11.9375,0.0,0.0,0.0
1695729227351,-1.1074219,0.3564453,0.7363281,36.59375,127.4375,9.25,0.0,0.0,0.0
1695729227380,-0.73339844,0.234375,0.5576172,-64.84375,145.90625,-15.625,0.0,0.0,0.0
1695729227440,-0.9609375,0.3046875,0.37890625,3.03125,26.03125,160.9375,0.0,0.0,0.0
1695729227471,-0.5673828,0.1484375,0.4921875,-17.46875,156.96875,59.5625,0.0,0.0,0.0
1695729227529,-0.24609375,0.3017578,0.4609375,-115.3125,251.6875,-76.1875,0.0,0.0,0.0
1695729227561,0.16601562,0.03125,0.09472656,-46.53125,278.375,-75.09375,-74.875,-11.1875,-125.875
1695729227589,-1.2353516,0.19628906,-0.022460938,-39.3125,164.59375,10.71875,0.0,0.0,0.0
1695729227622,-0.70703125,-0.0107421875,-0.05078125,-54.28125,167.78125,-57.375,0.0,0.0,0.0
1695729227679,-0.7792969,0.10839844,-0.28808594,-33.65625,-37.5625,-147.125,0.0,0.0,0.0
1695729227710,-1.6455078,0.12011719,-0.11621094,36.84375,39.71875,42.40625,0.0,0.0,0.0
1695729227740,-0.9814453,-0.23242188,-0.24414062,-27.40625,13.0,-6.1875,0.0,0.0,0.0
1695729227799,-1.0566406,-0.14453125,-0.24902344,-11.125,7.5625,-9.53125,0.0,0.0,0.0
1695729227828,-0.87890625,0.09765625,-0.27539062,-61.96875,0.15625,-31.8125,0.0,0.0,0.0
1695729227858,-1.1318359,0.030273438,-0.22070312,13.84375,0.34375,-40.1875,0.0,0.0,0.0
1695729227920,-1.1484375,-0.005859375,-0.28808594,31.1875,-14.46875,-33.65625,0.0,0.0,0.0
1695729227950,-0.6640625,0.52246094,-0.0048828125,92.5625,-243.78125,81.15625,0.0,0.0,0.0
1695729227980,-0.54785156,0.059570312,0.71484375,197.5625,-137.96875,111.0,0.0,0.0,0.0
1695729228039,-1.0908203,-0.28515625,0.625,-156.4375,24.59375,3.21875,0.0,0.0,0.0
1695729228070,-0.7324219,0.109375,-0.12597656,47.46875,-244.53125,49.78125,-77.125,-17.6875,-128.0
1695729228100,-0.5859375,0.043945312,0.5683594,53.28125,-26.875,-3.3125,0.0,0.0,0.0
1695729228160,-0.70996094,-0.013671875,0.53808594,-15.875,-88.8125,0.90625,0.0,0.0,0.0
1695729228189,-1.1748047,0.0234375,0.82714844,10.0,-131.84375,39.34375,0.0,0.0,0.0
1695729228220,-0.71191406,0.3779297,0.85253906,36.4375,-108.28125,23.0,0.0,0.0,0.0
1695729228279,-0.37890625,0.15234375,0.61328125,-58.59375,-60.5,-6.96875,0.0,0.0,0.0
1695729228309,-0.89160156,0.20410156,1.0664062,-21.8125,-83.09375,12.9375,0.0,0.0,0.0
1695729228339,-0.68359375,-0.0068359375,0.7871094,-2.28125,-30.78125,-11.375,0.0,0.0,0.0
1695729228400,-0.75390625,0.2626953,0.8720703,-9.28125,-35.0,8.28125,0.0,0.0,0.0
1695729228431,-0.4765625,0.2529297,0.86035156,-3.1875,-42.0625,4.125,0.0,0.0,0.0
1695729228459,-0.42089844,0.20800781,0.5908203,37.71875,-41.28125,19.9375,0.0,0.0,0.0
1695729228520,-0.4111328,0.20117188,0.8925781,67.125,-52.125,16.78125,0.0,0.0,0.0
1695729228552,-0.43164062,0.109375,0.75097656,20.1875,-46.15625,16.21875,-57.75,-9.5625,-98.4375
1695729228639,-0.53808594,0.6796875,1.6962891,123.34375,-54.65625,23.65625,0.0,0.0,0.0
1695729228640,-0.62402344,0.34179688,0.95703125,-95.84375,-18.375,-49.21875,0.0,0.0,0.0
1695729228669,-0.23339844,0.23730469,0.30371094,-32.5625,-53.59375,-29.75,0.0,0.0,0.0
1695729228699,-0.3544922,0.32421875,0.46679688,96.25,-115.25,24.875,0.0,0.0,0.0
1695729228759,0.0,0.6699219,1.3613281,95.5625,-47.0625,-15.09375,0.0,0.0,0.0
1695729228790,-0.03125,0.21679688,0.8154297,-49.15625,-19.25,-5.15625,0.0,0.0,0.0
1695729228820,-0.30566406,0.080078125,0.39648438,-27.1875,-12.21875,23.46875,0.0,0.0,0.0
1695729228879,-0.099609375,0.38476562,0.9980469,58.15625,-37.625,19.03125,0.0,0.0,0.0
1695729228909,-0.115234375,0.2578125,0.80859375,-31.25,27.34375,5.78125,0.0,0.0,0.0
1695729228940,-0.07910156,0.27929688,0.82128906,27.15625,-0.5,5.34375,0.0,0.0,0.0
1695729229000,-0.07128906,0.30664062,0.78808594,6.5625,30.375,10.46875,0.0,0.0,0.0
1695729229030,-0.1171875,0.2890625,0.7480469,37.40625,18.125,10.84375,0.0,0.0,0.0
1695729229060,-0.0546875,0.4013672,0.8623047,-4.59375,50.15625,5.78125,-50.5625,-4.9375,-92.875
1695729229119,-0.20214844,0.3720703,0.9003906,-0.875,36.71875,21.28125,0.0,0.0,0.0
1695729229149,-0.33789062,0.21289062,0.7480469,-32.25,61.875,-7.71875,0.0,0.0,0.0
1695729229180,-0.34765625,0.3486328,0.84375,30.0,53.875,-22.21875,0.0,0.0,0.0
1695729229240,-0.3154297,0.25195312,0.78222656,-6.4375,64.1875,-32.78125,0.0,0.0,0.0
1695729229270,-0.35839844,0.2685547,0.60839844,13.40625,72.875,-39.625,0.0,0.0,0.0
1695729229300,-0.60253906,0.796875,1.8398438,-7.34375,0.15625,-20.34375,0.0,0.0,0.0
1695729229360,-0.14746094,0.4892578,0.7792969,-110.5625,54.0625,-27.78125,0.0,0.0,0.0
1695729229390,-0.53125,0.26953125,0.20117188,-108.71875,12.1875,17.875,0.0,0.0,0.0
1695729229419,-0.83203125,0.23730469,1.3720703,24.28125,32.5625,-15.59375,0.0,0.0,0.0
1695729229479,-0.5722656,0.41796875,1.1386719,117.59375,37.53125,16.65625,0.0,0.0,0.0
1695729229510,-0.73339844,0.23730469,0.7080078,-59.78125,118.6875,-6.71875,0.0,0.0,0.0
1695729229539,-0.85839844,0.26953125,0.84375,19.40625,116.375,-25.03125,-65.375,-11.375,-104.625
1695729229599,-0.796875,0.25390625,0.56152344,-1.65625,134.9375,-27.78125,0.0,0.0,0.0
1695729229629,-0.8154297,0.17871094,0.43945312,7.8125,130.53125,-4.28125,0.0,0.0,0.0
1695729229660,-0.94433594,0.3046875,0.46777344,10.1875,133.84375,-2.75,0.0,0.0,0.0
1695729229719,-0.6933594,0.20410156,0.4326172,-75.5625,137.4375,45.34375,0.0,0.0,0.0
1695729229751,0.18164062,-0.01171875,0.375,-71.65625,268.59375,-156.5,0.0,0.0,0.0
1695729229810,-1.3730469,0.26953125,0.16503906,78.53125,31.71875,-20.09375,0.0,0.0,0.0
1695729229840,-0.78808594,-0.0029296875,0.025390625,-157.5,195.3125,-67.46875,0.0,0.0,0.0
1695729229869,-0.7167969,-0.021484375,-0.3828125,-89.1875,24.21875,-100.71875,0.0,0.0,0.0
1695729229900,-0.984375,0.26171875,-0.3076172,26.90625,34.21875,-88.53125,0.0,0.0,0.0
1695729229960,-1.3720703,0.08691406,-0.10546875,79.6875,4.5625,54.5,0.0,0.0,0.0
1695729229989,-1.0078125,-0.107421875,-0.03515625,-5.375,-19.53125,15.0625,0.0,0.0,0.0
1695729230023,-1.1435547,-0.083984375,-0.28710938,-60.1875,-35.90625,-5.25,0.0,0.0,0.0
1695729230082,-0.89453125,0.10253906,-0.17089844,-74.125,4.6875,-8.75,-76.0625,-22.0,-140.0
1695729230110,-0.9326172,-0.083984375,-0.31054688,-62.15625,40.34375,-37.90625,0.0,0.0,0.0
1695729230140,-1.1289062,-0.15332031,-0.40527344,114.90625,-13.875,20.3125,0.0,0.0,0.0
1695729230199,-0.9121094,0.078125,0.16796875,138.59375,-135.5625,43.9375,0.0,0.0,0.0
1695729230229,-0.67578125,0.119140625,0.072265625,27.21875,-104.8125,25.8125,0.0,0.0,0.0
1695729230260,-1.1318359,-0.036132812,0.7167969,101.96875,-103.46875,47.40625,0.0,0.0,0.0
1695729230320,-0.9355469,0.18945312,0.66503906,-95.21875,58.8125,-39.125,0.0,0.0,0.0
1695729230351,-0.6513672,0.25195312,0.11621094,126.625,-258.125,55.78125,0.0,0.0,0.0
1695729230380,-0.072265625,0.15332031,0.8847656,88.25,-181.40625,33.0625,0.0,0.0,0.0
1695729230439,-0.32617188,-0.21484375,0.7236328,-106.53125,-137.46875,31.0625,0.0,0.0,0.0
1695729230472,-1.5917969,0.13183594,0.6484375,-32.25,-126.78125,20.0,0.0,0.0,0.0
1695729230500,-0.7841797,0.05859375,0.6455078,-25.34375,-85.84375,14.375,0.0,0.0,0.0
1695729230561,-0.49804688,0.27441406,0.89453125,-24.375,-84.3125,0.40625,-65.5625,-15.125,-104.125
1695729230590,-0.80566406,0.020507812,0.8623047,5.53125,-64.90625,11.40625,0.0,0.0,0.0
1695729230619,-0.7080078,0.12402344,0.984375,9.625,-48.78125,14.875,0.0,0.0,0.0
1695729230682,-0.609375,0.17773438,0.8652344,16.15625,-21.3125,-0.5625,0.0,0.0,0.0
1695729230711,-0.35058594,0.06542969,0.7705078,60.03125,-40.375,15.96875,0.0,0.0,0.0
1695729230739,-0.453125,0.22460938,1.0371094,62.65625,-42.375,35.75,0.0,0.0,0.0
1695729230800,-0.9238281,0.39453125,1.2402344,9.625,-76.0,30.125,0.0,0.0,0.0
1695729230833,-0.54785156,0.38378906,0.8310547,15.65625,-94.3125,-66.96875,0.0,0.0,0.0
1695729230858,0.055664062,0.5996094,0.70214844,65.40625,-83.8125,-53.25,0.0,0.0,0.0
1695729230918,0.001953125,0.46679688,0.63964844,-4.90625,-86.125,-4.15625,0.0,0.0,0.0
1695729230950,-0.08203125,0.25683594,0.81152344,17.25,-78.25,24.21875,0.0,0.0,0.0
1695729230979,-0.059570312,0.31445312,0.93652344,-32.5625,-31.15625,-3.3125,0.0,0.0,0.0
1695729231038,0.043945312,0.18066406,0.6640625,-44.15625,-22.46875,15.3125,0.0,0.0,0.0
1695729231069,-0.06933594,0.08105469,0.9033203,4.75,-5.625,25.8125,-45.3125,-9.6875,-89.875
1695729231099,-0.1640625,0.328125,0.83984375,-27.78125,2.375,-4.96875,0.0,0.0,0.0
1695729231159,-0.07519531,0.18847656,0.84472656,21.71875,19.21875,1.875,0.0,0.0,0.0
1695729231190,-0.14355469,0.18457031,0.9267578,9.6875,17.75,-8.625,0.0,0.0,0.0
1695729231219,0.072265625,0.44433594,0.65625,-6.90625,28.25,-14.71875,0.0,0.0,0.0
1695729231312,-0.06933594,0.37695312,0.8955078,55.53125,30.5625,21.03125,0.0,0.0,0.0
1695729231315,-0.18164062,0.33398438,0.98046875,-28.28125,36.71875,15.5,0.0,0.0,0.0
1695729231340,-0.13476562,0.19921875,0.75683594,-9.90625,42.90625,12.625,0.0,0.0,0.0
1695729231399,-0.21386719,0.22265625,0.96875,6.28125,44.46875,4.6875,0.0,0.0,0.0
1695729231430,-0.23242188,0.1875,0.86816406,-3.0,48.5625,-10.625,0.0,0.0,0.0
1695729231462,-0.21582031,0.21582031,0.88964844,-22.125,56.3125,-31.625,0.0,0.0,0.0
1695729231519,-0.28222656,0.19042969,0.7734375,11.15625,63.28125,-23.9375,0.0,0.0,0.0
1695729231549,-0.26464844,0.2607422,0.7910156,-33.71875,74.625,-28.46875,-56.875,-9.6875,-95.4375
1695729231580,-0.3203125,0.25683594,0.53222656,-45.71875,111.0625,-22.59375,0.0,0.0,0.0
1695729231671,-1.1572266,0.32910156,1.9521484,13.90625,-17.03125,-5.8125,0.0,0.0,0.0
1695729231673,0.08886719,0.31835938,0.61621094,-124.78125,88.0625,-31.75,0.0,0.0,0.0
1695729231700,-0.6591797,0.5390625,1.3759766,165.9375,-43.28125,100.3125,0.0,0.0,0.0
1695729231759,-0.44140625,-0.15820312,0.48046875,-113.53125,113.625,-20.9375,0.0,0.0,0.0
1695729231789,-0.71972656,0.05859375,1.1914062,30.6875,86.59375,9.5,0.0,0.0,0.0
1695729231821,-0.9238281,0.25,0.59472656,-4.09375,112.65625,10.59375,0.0,0.0,0.0
1695729231910,-0.8330078,0.34570312,0.7470703,42.34375,119.0625,-11.84375,0.0,0.0,0.0
1695729231913,-0.7060547,0.08886719,0.42285156,-14.78125,140.84375,-34.5,0.0,0.0,0.0
1695729231939,-0.671875,0.0068359375,0.39746094,33.125,140.0625,-50.4375,0.0,0.0,0.0
1695729232032,-0.64941406,0.3251953,0.53125,75.0,147.25,-97.4375,0.0,0.0,0.0
1695729232035,-0.63378906,0.25683594,0.080078125,-125.875,176.0,-50.75,0.0,0.0,0.0
1695729232091,-1.0341797,-0.06347656,0.047851562,-104.1875,138.34375,-40.25,-78.3125,-18.5625,-128.75
1695729232120,-0.6748047,0.18457031,0.16699219,20.4375,90.625,-33.53125,0.0,0.0,0.0
1695729232150,-0.9980469,0.25585938,0.21386719,-15.53125,62.5,1.3125,0.0,0.0,0.0
1695729232179,-0.8251953,-0.115234375,-0.24609375,-138.875,46.875,-13.1875,0.0,0.0,0.0
1695729232240,-1.0732422,-0.030273438,-0.19335938,-8.8125,34.40625,-9.78125,0.0,0.0,0.0
1695729232269,-0.9707031,0.0078125,-0.31445312,13.34375,-32.5,6.875,0.0,0.0,0.0
1695729232300,-1.140625,0.0234375,-0.12402344,69.1875,-3.125,8.71875,0.0,0.0,0.0
1695729232359,-1.0898438,-0.0107421875,0.017578125,69.25,-22.59375,18.0,0.0,0.0,0.0
1695729232390,-1.0175781,0.140625,0.07714844,33.6875,-38.90625,15.5625,0.0,0.0,0.0
1695729232419,-0.671875,0.03515625,-0.234375,22.5,-84.4375,28.125,0.0,0.0,0.0
1695729232479,-0.7392578,0.33984375,0.19628906,49.0625,-73.0,28.375,0.0,0.0,0.0
1695729232510,-1.0566406,0.0859375,0.22363281,31.96875,-83.34375,42.53125,0.0,0.0,0.0
1695729232539,-0.8076172,-0.09765625,0.1953125,-7.59375,-100.0,12.25,-76.625,-16.9375,-128.3125
1695729232600,-1.0556641,0.25585938,0.6142578,0.71875,-62.21875,-48.96875,0.0,0.0,0.0
1695729232628,-0.93847656,0.32714844,0.009765625,4.25,-191.65625,63.09375,0.0,0.0,0.0
1695729232658,-0.4140625,0.5,0.62890625,103.0625,-199.65625,51.3125,0.0,0.0,0.0
1695729232719,-0.47070312,0.064453125,0.58984375,-139.0625,-91.9375,17.6875,0.0,0.0,0.0
1695729232750,-0.9033203,-0.22558594,1.0722656,-34.625,-95.0625,-4.65625,0.0,0.0,0.0
1695729232779,-0.75,-0.028320312,0.8017578,-9.0,-93.15625,33.6875,0.0,0.0,0.0
1695729232841,-0.7138672,0.4033203,0.88964844,-8.125,-87.71875,27.34375,0.0,0.0,0.0
1695729232870,-0.7597656,0.26171875,0.91796875,-35.90625,-65.5,17.3125,0.0,0.0,0.0
1695729232899,-0.54589844,0.076171875,0.91796875,-33.40625,-63.8125,11.71875,0.0,0.0,0.0
1695729232959,-0.23046875,0.068359375,0.89746094,58.46875,-45.25,6.875,0.0,0.0,0.0
1695729232988,-0.40722656,0.115234375,1.0244141,28.0625,-41.65625,29.09375,0.0,0.0,0.0
1695729233019,-0.7548828,0.24511719,1.3964844,69.875,-66.125,36.125,0.0,0.0,0.0
1695729233080,-0.8623047,0.5449219,0.921875,-28.75,-35.53125,-9.96875,-55.625,-10.625,-94.25
1695729233110,-0.017578125,0.26757812,0.4140625,-15.46875,-68.375,-61.28125,0.0,0.0,0.0
1695729233139,0.4111328,0.50390625,0.7207031,47.78125,-63.625,-34.0,0.0,0.0,0.0
1695729233200,-0.359375,0.19335938,1.1123047,33.96875,-86.0,20.84375,0.0,0.0,0.0
1695729233230,0.03125,0.23535156,0.7832031,-14.78125,-49.875,6.9375,0.0,0.0,0.0
1695729233260,-0.038085938,0.23828125,0.85058594,-0.6875,-38.84375,5.34375,0.0,0.0,0.0
1695729233320,0.13671875,0.1796875,0.6376953,-9.40625,-17.96875,9.9375,0.0,0.0,0.0
1695729233351,0.03515625,0.18945312,0.9736328,37.59375,1.8125,19.625,0.0,0.0,0.0
1695729233379,-0.0625,0.25683594,0.8691406,-2.6875,10.3125,1.75,0.0,0.0,0.0
1695729233439,-0.08203125,0.18945312,0.7949219,-6.71875,24.59375,-5.8125,0.0,0.0,0.0
1695729233470,-0.2861328,0.26660156,0.90625,-7.40625,24.34375,-10.6875,0.0,0.0,0.0
1695729233499,-0.034179688,0.2861328,0.82910156,2.78125,35.3125,-21.1875,0.0,0.0,0.0
1695729233559,-0.1171875,0.28222656,0.86035156,11.03125,27.28125,-21.1875,-49.0625,-10.0,-90.5
1695729233589,-0.10253906,0.2763672,0.9160156,-13.875,54.84375,-28.40625,0.0,0.0,0.0
1695729233620,-0.20507812,0.22753906,0.71972656,-16.9375,61.5,-17.78125,0.0,0.0,0.0
1695729233680,-0.23730469,0.3173828,1.0107422,23.59375,53.09375,-17.09375,0.0,0.0,0.0
1695729233710,-0.2685547,0.1875,0.82128906,-47.1875,70.96875,-17.21875,0.0,0.0,0.0
1695729233739,-0.38085938,0.15136719,0.6933594,-12.40625,73.09375,-19.96875,0.0,0.0,0.0
1695729233799,-0.40039062,0.28320312,0.92578125,13.96875,73.03125,-17.84375,0.0,0.0,0.0
1695729233830,-0.4921875,0.16601562,0.67578125,-49.34375,103.9375,-33.59375,0.0,0.0,0.0
1695729233860,-0.8925781,0.3798828,1.7480469,46.6875,-49.03125,19.21875,0.0,0.0,0.0
1695729233919,-0.13476562,0.28710938,0.5654297,-111.96875,65.90625,-32.25,0.0,0.0,0.0
1695729233949,-0.7529297,0.4326172,1.2851562,32.40625,-43.84375,73.28125,0.0,0.0,0.0
1695729233980,-0.7392578,-0.051757812,0.6699219,-38.15625,78.0625,7.6875,0.0,0.0,0.0
1695729234040,-0.640625,0.15429688,1.2675781,30.4375,61.9375,32.6875,0.0,0.0,0.0
1695729234070,-0.73046875,-0.018554688,0.86035156,-5.8125,88.1875,26.78125,-63.875,-13.4375,-103.5625
1695729234100,-0.93847656,0.20800781,0.7285156,31.28125,105.21875,17.875,0.0,0.0,0.0
1695729234159,-0.953125,0.1328125,0.62109375,25.3125,109.3125,5.21875,0.0,0.0,0.0
1695729234189,-0.99316406,-0.07128906,0.33398438,6.09375,79.21875,50.28125,0.0,0.0,0.0
1695729234221,-0.39648438,0.17285156,0.4970703,39.09375,114.5,-34.875,0.0,0.0,0.0
1695729234282,-0.10546875,0.421875,0.5048828,13.28125,246.875,-180.8125,0.0,0.0,0.0
1695729234310,-1.4892578,0.0146484375,0.08203125,-285.65625,245.21875,145.96875,0.0,0.0,0.0
1695729234370,-0.57128906,0.034179688,0.05859375,-36.40625,141.9375,-48.90625,0.0,0.0,0.0
1695729234402,-0.8251953,0.13183594,0.20800781,22.375,44.90625,-7.65625,0.0,0.0,0.0
1695729234429,-1.0742188,0.026367188,0.0048828125,-8.8125,3.15625,10.375,0.0,0.0,0.0
1695729234460,-1.2070312,0.049804688,-0.17773438,-49.03125,29.40625,-15.53125,0.0,0.0,0.0
1695729234520,-0.9404297,-0.0146484375,-0.1796875,-93.28125,50.15625,-22.96875,0.0,0.0,0.0
1695729234549,-1.0263672,0.11816406,-0.3408203,-38.53125,16.78125,-11.71875,-76.5,-21.4375,-137.4375
1695729234580,-1.0771484,-0.001953125,-0.18457031,53.15625,40.875,-19.53125,0.0,0.0,0.0
1695729234639,-0.9736328,0.1171875,-0.06542969,73.71875,19.09375,-7.53125,0.0,0.0,0.0
1695729234669,-1.0732422,-0.0048828125,-0.12890625,25.0625,39.0,9.375,0.0,0.0,0.0
1695729234700,-0.83496094,0.13574219,0.20800781,-0.125,29.78125,-7.65625,0.0,0.0,0.0
1695729234759,-0.9033203,0.028320312,-0.0234375,-31.875,-10.8125,10.71875,0.0,0.0,0.0
1695729234790,-1.234375,-0.09277344,-0.0107421875,35.15625,-61.84375,41.96875,0.0,0.0,0.0
1695729234820,-0.96972656,-0.0625,0.08984375,37.9375,-173.90625,27.28125,0.0,0.0,0.0
1695729234879,-0.9189453,-0.0107421875,0.39941406,-10.15625,-59.90625,-44.8125,0.0,0.0,0.0
1695729234910,-0.9433594,0.037109375,0.5527344,56.8125,-160.90625,-22.34375,0.0,0.0,0.0
1695729234940,-0.08691406,0.29296875,-0.25097656,91.84375,-285.125,37.40625,0.0,0.0,0.0
1695729235000,-0.8857422,0.56933594,1.5517578,209.28125,-130.03125,81.65625,0.0,0.0,0.0
1695729235031,-0.79785156,-0.21484375,-0.27148438,-232.875,-65.75,32.09375,0.0,0.0,0.0
1695729235059,-1.1298828,0.06738281,1.0703125,-38.21875,-113.78125,20.375,-69.625,-16.0,-108.8125
1695729235120,-0.87109375,0.0078125,0.76660156,38.0625,-108.34375,29.40625,0.0,0.0,0.0
1695729235150,-0.8574219,0.26660156,0.640625,-33.34375,-62.75,16.90625,0.0,0.0,0.0
1695729235179,-0.80371094,0.08300781,1.0673828,0.46875,-76.0625,13.0,0.0,0.0,0.0
1695729235240,-0.5566406,0.09472656,1.0605469,-16.125,-45.59375,9.5,0.0,0.0,0.0
1695729235270,-0.6699219,0.036132812,0.91015625,27.09375,-28.59375,22.25,0.0,0.0,0.0
1695729235301,-0.6113281,0.040039062,0.703125,58.53125,-50.25,8.90625,0.0,0.0,0.0
1695729235360,-0.4892578,0.47753906,1.3789062,73.84375,-79.1875,-4.84375,0.0,0.0,0.0
1695729235390,-0.21777344,0.296875,0.6386719,-28.75,-66.375,-49.40625,0.0,0.0,0.0
1695729235420,0.08496094,0.36132812,0.49316406,93.5,-65.09375,-45.0625,0.0,0.0,0.0
1695729235479,-0.20507812,0.6386719,1.3710938,96.78125,-87.40625,-6.90625,0.0,0.0,0.0
1695729235509,0.01171875,0.29296875,0.69140625,-104.375,-36.625,-13.5625,0.0,0.0,0.0
1695729235538,-0.017578125,0.22460938,0.7470703,14.3125,-39.8125,17.3125,-49.625,-9.6875,-91.6875
1695729235599,-0.13085938,0.19824219,0.7597656,-32.5625,-17.78125,7.90625,0.0,0.0,0.0
1695729235629,-0.08886719,0.2578125,0.8232422,14.3125,-13.875,2.5625,0.0,0.0,0.0
1695729235659,-0.060546875,0.19335938,0.7480469,0.34375,6.03125,-2.75,0.0,0.0,0.0
1695729235720,-0.10449219,0.26953125,0.7998047,13.28125,11.9375,-6.90625,0.0,0.0,0.0
1695729235749,-0.095703125,0.296875,0.89160156,8.46875,30.8125,-16.875,0.0,0.0,0.0
1695729235781,-0.103515625,0.24609375,0.79003906,17.625,34.65625,-17.71875,0.0,0.0,0.0
1695729235839,-0.24023438,0.2919922,0.88378906,0.65625,40.4375,-13.8125,0.0,0.0,0.0
1695729235870,-0.18261719,0.34179688,0.76660156,17.0625,51.1875,-20.40625,0.0,0.0,0.0
1695729235900,-0.16503906,0.3544922,0.9296875,40.4375,52.28125,-17.09375,0.0,0.0,0.0
1695729235930,-0.23535156,0.34375,0.7783203,-5.6875,61.4375,-10.625,0.0,0.0,0.0
1695729235990,-0.3486328,0.36914062,0.8671875,10.1875,67.5,-13.8125,0.0,0.0,0.0
1695729236019,-0.38867188,0.25878906,0.7578125,-22.90625,68.21875,-16.125,0.0,0.0,0.0
1695729236079,-0.484375,0.19238281,0.6425781,-22.59375,77.3125,-19.125,-58.5,-9.5625,-98.0
1695729236111,-0.8544922,0.48339844,1.6484375,2.90625,-8.4375,-9.46875,0.0,0.0,0.0
1695729236140,-0.055664062,0.2607422,0.5878906,-7.71875,30.8125,-18.5,0.0,0.0,0.0
1695729236171,-0.65527344,0.765625,1.0214844,-20.15625,16.21875,50.03125,0.0,0.0,0.0
1695729236229,-0.6542969,0.27246094,0.7246094,-42.125,64.375,17.75,0.0,0.0,0.0
1695729236258,-0.63183594,0.0703125,1.0214844,4.125,82.625,-7.8125,0.0,0.0,0.0
1695729236288,-0.64941406,0.32910156,1.0712891,-9.40625,72.0625,18.53125,0.0,0.0,0.0
1695729236350,-0.9453125,0.09472656,0.64746094,-18.5625,108.0625,8.21875,0.0,0.0,0.0
1695729236379,-0.9326172,0.16894531,0.5810547,9.5,124.5625,-24.5625,0.0,0.0,0.0
1695729236440,-0.86816406,0.1953125,0.5595703,4.0,108.625,-10.8125,0.0,0.0,0.0
1695729236469,-0.72558594,0.28125,0.47265625,7.8125,142.0625,-40.78125,0.0,0.0,0.0
1695729236498,-1.1767578,0.16699219,0.3388672,3.90625,118.34375,-26.4375,0.0,0.0,0.0
1695729236558,0.005859375,0.140625,0.55078125,10.71875,93.3125,-28.46875,-73.625,-14.6875,-119.75
1695729236589,-0.24121094,0.3623047,0.18261719,-11.5625,144.8125,-109.03125,0.0,0.0,0.0
1695729236651,-1.1113281,-0.07324219,0.3017578,-64.90625,192.5625,-30.53125,0.0,0.0,0.0
1695729236682,-1.0947266,0.025390625,0.056640625,-53.53125,82.5625,-38.65625,0.0,0.0,0.0
1695729236709,-0.7714844,0.076171875,-0.0029296875,-63.6875,54.5625,-37.125,0.0,0.0,0.0
1695729236739,-1.0693359,0.10839844,-0.030273438,-38.28125,36.375,-7.9375,0.0,0.0,0.0
1695729236769,-0.8857422,-0.0126953125,-0.2548828,-45.5625,19.15625,-12.28125,0.0,0.0,0.0
1695729236859,-1.0166016,-0.064453125,-0.34277344,-21.9375,12.1875,-3.90625,0.0,0.0,0.0
1695729236861,-1.1054688,-0.10253906,-0.07714844,-21.0625,26.09375,-5.5,0.0,0.0,0.0
1695729236888,-1.1787109,-0.0048828125,-0.20800781,-43.28125,-0.75,-6.5,0.0,0.0,0.0
1695729236949,-0.9667969,0.028320312,-0.30371094,-26.0625,-48.0,2.90625,0.0,0.0,0.0
1695729236980,-0.7734375,0.19042969,-0.22265625,55.53125,-40.375,32.34375,0.0,0.0,0.0
1695729237011,-0.8076172,-0.087890625,0.09863281,183.625,-137.28125,73.09375,0.0,0.0,0.0
1695729237069,-0.9863281,0.08984375,0.7792969,74.6875,-107.625,63.46875,-77.125,-19.4375,-132.5
1695729237100,-0.7861328,0.3046875,0.35058594,-61.34375,-119.875,6.28125,0.0,0.0,0.0
1695729237130,-1.4697266,0.41308594,0.3310547,-65.09375,88.0625,-10.9375,0.0,0.0,0.0
1695729237189,-0.12011719,-0.0859375,0.36621094,128.21875,-405.59375,62.71875,0.0,0.0,0.0
1695729237219,-0.5859375,0.30664062,0.95703125,19.53125,-170.84375,68.03125,0.0,0.0,0.0
1695729237310,-0.7890625,0.12011719,0.8417969,-42.875,-50.0625,11.8125,0.0,0.0,0.0
1695729237312,-0.890625,-0.15625,0.46972656,-27.90625,-101.5625,13.0,0.0,0.0,0.0
1695729237340,-0.45214844,0.16113281,0.94433594,-19.90625,-130.875,3.09375,0.0,0.0,0.0
1695729237370,-0.78222656,0.049804688,0.7890625,-2.40625,-74.65625,13.59375,0.0,0.0,0.0
1695729237431,-0.71191406,0.26757812,0.9238281,-13.25,-62.625,22.1875,0.0,0.0,0.0
1695729237458,-0.6582031,0.17578125,0.8652344,-3.4375,-38.53125,-2.09375,0.0,0.0,0.0
1695729237489,-0.453125,0.140625,0.8203125,40.28125,-32.1875,14.625,0.0,0.0,0.0
1695729237550,-0.4814453,0.20605469,0.52734375,54.25,-41.59375,37.75,-61.8125,-12.875,-100.125
1695729237579,-0.5332031,0.37695312,1.2851562,148.90625,-43.90625,9.6875,0.0,0.0,0.0
1695729237610,-0.67285156,0.44433594,1.3339844,-77.09375,-14.1875,7.25,0.0,0.0,0.0
1695729237669,-0.5683594,0.17480469,0.64453125,-59.46875,-19.90625,-39.1875,0.0,0.0,0.0
1695729237700,-0.11816406,0.328125,0.5048828,-27.0,-56.65625,-39.125,0.0,0.0,0.0
1695729237731,0.23535156,0.42578125,0.8251953,105.09375,-52.5,0.65625,0.0,0.0,0.0
1695729237789,-0.4873047,0.48242188,1.0019531,-45.71875,-13.875,19.6875,0.0,0.0,0.0
1695729237819,-0.33984375,-0.016601562,0.6044922,-65.625,-0.25,-33.46875,0.0,0.0,0.0
1695729237849,-0.24707031,0.13671875,0.8105469,29.34375,-6.59375,-8.1875,0.0,0.0,0.0
1695729237909,-0.28808594,0.31640625,0.9326172,17.5625,-5.03125,7.25,0.0,0.0,0.0
1695729237941,-0.18847656,0.24316406,0.94140625,9.1875,-0.5625,7.0,0.0,0.0,0.0
1695729237970,-0.16796875,0.234375,0.796875,-22.84375,4.0,17.625,0.0,0.0,0.0
1695729238030,-0.20214844,0.22167969,0.9042969,7.90625,4.6875,7.375,0.0,0.0,0.0
1695729238059,-0.3798828,0.22558594,0.953125,-16.75,15.625,2.0,-54.75,-12.5625,-94.125
1695729238090,-0.31152344,0.13964844,0.7558594,-18.25,13.90625,-0.8125,0.0,0.0,0.0
1695729238149,-0.2890625,0.21679688,0.8046875,1.5625,23.84375,-6.0,0.0,0.0,0.0
1695729238182,-0.2939453,0.1640625,0.8417969,18.28125,25.875,-16.25,0.0,0.0,0.0
1695729238209,-0.33007812,0.21289062,0.84765625,18.0,32.5625,-16.0,0.0,0.0,0.0
1695729238269,-0.3564453,0.265625,0.8378906,31.59375,32.9375,-12.59375,0.0,0.0,0.0
1695729238300,-0.44140625,0.2265625,0.8017578,4.5625,43.6875,-21.5,0.0,0.0,0.0
1695729238332,-0.47265625,0.28808594,1.0292969,-10.9375,32.28125,-19.1875,0.0,0.0,0.0
1695729238389,-0.58203125,0.2421875,0.7607422,27.28125,8.84375,-16.1875,0.0,0.0,0.0
1695729238420,-0.19628906,0.44628906,0.7128906,23.78125,18.21875,1.03125,0.0,0.0,0.0
1695729238483,-0.4140625,0.5234375,1.3789062,-73.1875,33.375,9.9375,0.0,0.0,0.0
1695729238510,-0.33691406,0.30371094,0.69921875,-148.625,4.8125,43.75,0.0,0.0,0.0
1695729238538,-0.7285156,0.4716797,1.4609375,138.53125,15.0625,64.875,0.0,0.0,0.0
1695729238600,-0.5761719,-0.119140625,0.4296875,-19.96875,97.59375,22.03125,-61.0625,-11.375,-100.375
1695729238629,-0.68652344,0.0068359375,1.0302734,-39.03125,93.5625,4.9375,0.0,0.0,0.0
1695729238660,-0.9970703,0.15234375,0.73046875,23.25,113.09375,11.28125,0.0,0.0,0.0
1695729238689,-0.94628906,0.24902344,0.6582031,-1.40625,123.21875,-14.59375,0.0,0.0,0.0
1695729238749,-0.6015625,-0.05078125,0.4482422,7.5,135.0,-71.125,0.0,0.0,0.0
1695729238810,-0.58496094,-0.038085938,0.4638672,-0.8125,144.8125,-48.78125,0.0,0.0,0.0
1695729238813,-0.4375,0.61621094,0.43847656,67.5,175.46875,-126.0625,0.0,0.0,0.0
1695729238871,-0.41210938,0.2685547,0.46484375,-25.46875,147.875,-118.71875,0.0,0.0,0.0
1695729238933,-0.7324219,0.14453125,0.06347656,-15.46875,90.0,-29.125,0.0,0.0,0.0
1695729238935,-0.8535156,0.16796875,0.12207031,31.84375,76.21875,-7.28125,0.0,0.0,0.0
1695729238991,-0.9873047,0.06738281,-0.0068359375,-52.875,79.875,-13.0625,0.0,0.0,0.0
1695729239020,-0.92578125,0.06933594,-0.21679688,-38.15625,26.28125,-19.25,0.0,0.0,0.0
1695729239079,-1.1259766,0.005859375,-0.15136719,-4.71875,17.5625,-8.4375,-76.5,-20.375,-138.1875
1695729239110,-1.0615234,0.09277344,-0.19433594,-45.125,33.625,-16.25,0.0,0.0,0.0
1695729239142,-1.0927734,-0.06640625,-0.038085938,2.0,-3.5625,8.59375,0.0,0.0,0.0
1695729239170,-0.90234375,0.07519531,-0.18457031,-88.53125,-0.6875,-10.4375,0.0,0.0,0.0
1695729239229,-1.0146484,0.0146484375,-0.10253906,11.875,-26.375,17.5,0.0,0.0,0.0
1695729239262,-0.9550781,-0.13085938,-0.15332031,-22.84375,-1.90625,9.25,0.0,0.0,0.0
1695729239291,-0.91503906,0.22070312,-9.765625E-4,-44.9375,43.875,-3.375,0.0,0.0,0.0
1695729239348,-1.0283203,0.09765625,0.0078125,53.6875,-66.125,55.21875,0.0,0.0,0.0
1695729239379,-1.0830078,-0.18847656,0.044921875,24.53125,-74.0,40.9375,0.0,0.0,0.0
1695729239409,-0.859375,0.12792969,0.5498047,107.28125,-161.15625,11.15625,0.0,0.0,0.0
1695729239468,-0.6191406,0.34570312,0.57421875,17.8125,-170.96875,23.0625,0.0,0.0,0.0
1695729239498,-0.7480469,0.40527344,0.22558594,4.25,-155.28125,36.84375,0.0,0.0,0.0
1695729239529,-0.2626953,0.22363281,0.5283203,10.0,-146.6875,44.78125,0.0,0.0,0.0
1695729239591,-0.51953125,-0.005859375,0.828125,-14.0,-124.65625,35.5,-72.0,-14.8125,-115.5625
1695729239620,-1.3740234,-0.16308594,0.53515625,-3.0,-113.65625,34.09375,0.0,0.0,0.0
1695729239650,-0.72265625,0.18164062,0.5683594,8.40625,-81.9375,25.4375,0.0,0.0,0.0
1695729239709,-0.7832031,0.72558594,0.86328125,-16.6875,-92.4375,22.5625,0.0,0.0,0.0
1695729239739,-0.6982422,0.16796875,0.8457031,-42.0,-58.25,5.40625,0.0,0.0,0.0
1695729239770,-0.71777344,0.046875,1.0009766,-31.5625,-56.0,13.03125,0.0,0.0,0.0
1695729239829,-0.54003906,0.080078125,0.953125,-12.65625,-38.34375,9.6875,0.0,0.0,0.0
1695729239859,-0.40625,0.15820312,0.76953125,37.34375,-30.65625,11.03125,0.0,0.0,0.0
1695729239891,-0.3701172,0.1640625,0.8457031,49.84375,-51.40625,1.3125,0.0,0.0,0.0
1695729239948,-0.41796875,0.32714844,1.0947266,51.8125,-11.25,-4.46875,0.0,0.0,0.0
1695729239980,-0.6582031,0.33691406,1.3271484,4.1875,-29.96875,-4.53125,0.0,0.0,0.0
1695729240015,-0.78125,0.4482422,0.9140625,-51.65625,-49.28125,-63.90625,0.0,0.0,0.0
1695729240068,0.07421875,0.14648438,0.4267578,-33.65625,-55.375,-80.71875,-57.125,-11.5,-95.75
1695729240098,-0.07910156,0.064453125,0.89160156,83.1875,-69.28125,-15.75,0.0,0.0,0.0
1695729240129,-0.29882812,0.5126953,0.9326172,-9.53125,-14.40625,-13.25,0.0,0.0,0.0
1695729240189,-0.00390625,0.3515625,0.90625,-17.71875,-23.4375,5.90625,0.0,0.0,0.0
1695729240219,-0.07519531,0.10839844,0.78222656,-87.1875,-6.4375,23.375,0.0,0.0,0.0
1695729240250,-0.41308594,-0.037109375,0.6357422,-14.90625,-11.25,30.875,0.0,0.0,0.0
1695729240311,-0.24316406,0.18652344,0.98339844,61.5625,-8.125,16.65625,0.0,0.0,0.0
1695729240339,-0.21386719,0.13183594,0.8066406,-12.78125,19.9375,-4.03125,0.0,0.0,0.0
1695729240370,-0.0859375,0.18164062,0.81152344,34.78125,7.5625,3.59375,0.0,0.0,0.0
1695729240430,-0.20410156,0.20605469,0.953125,-2.34375,41.4375,-8.1875,0.0,0.0,0.0
1695729240460,-0.20605469,0.19140625,0.8125,9.5625,33.25,-12.96875,0.0,0.0,0.0
1695729240489,-0.25195312,0.20410156,0.88183594,-0.4375,43.9375,-12.65625,0.0,0.0,0.0
1695729240550,-0.2841797,0.20800781,0.7685547,-19.96875,57.84375,-22.65625,0.0,0.0,0.0
1695729240579,-0.37890625,0.14746094,0.8457031,-6.65625,72.1875,-36.34375,-57.875,-14.0625,-95.75
1695729240610,-0.4267578,0.17285156,0.8046875,-46.46875,82.3125,-7.28125,0.0,0.0,0.0
1695729240670,-0.58984375,0.23730469,0.7636719,15.71875,55.96875,4.6875,0.0,0.0,0.0
1695729240699,-0.59765625,0.10546875,0.8828125,-18.5,70.46875,-2.03125,0.0,0.0,0.0
1695729240729,-0.62597656,0.103515625,1.3564453,-45.0625,-13.4375,-10.8125,0.0,0.0,0.0
1695729240790,-0.19433594,0.23046875,0.7285156,-76.8125,51.5625,1.375,0.0,0.0,0.0
1695729240819,-0.52734375,0.4091797,0.74316406,45.6875,-47.875,63.59375,0.0,0.0,0.0
1695729240849,-0.49414062,-9.765625E-4,1.0537109,25.875,17.6875,5.78125,0.0,0.0,0.0
1695729240910,-0.7011719,0.08886719,1.1455078,53.625,44.65625,30.3125,0.0,0.0,0.0
1695729240940,-0.80371094,0.07519531,0.8857422,-1.90625,90.8125,13.28125,0.0,0.0,0.0
1695729240969,-0.9121094,0.12792969,0.7421875,24.09375,105.15625,-4.71875,0.0,0.0,0.0
1695729241029,-0.8466797,0.051757812,0.5732422,15.65625,124.375,-35.78125,0.0,0.0,0.0
1695729241062,-0.9472656,0.07519531,0.45507812,24.875,125.90625,-36.8125,-71.125,-14.6875,-113.3125
1695729241089,-0.5878906,0.14257812,0.41796875,56.8125,95.9375,-71.71875,0.0,0.0,0.0
1695729241152,-0.40234375,0.66015625,0.46289062,53.28125,155.875,-44.6875,0.0,0.0,0.0
1695729241210,-0.66015625,0.33007812,0.21191406,-34.375,139.3125,-40.84375,0.0,0.0,0.0
1695729241212,-0.96777344,0.021484375,0.087890625,-16.5,125.09375,-20.15625,0.0,0.0,0.0
1695729241270,-0.9482422,0.052734375,0.19335938,-39.4375,122.96875,-28.21875,0.0,0.0,0.0
1695729241300,-0.9628906,0.09863281,0.0234375,-98.21875,89.84375,-38.59375,0.0,0.0,0.0
1695729241329,-0.8183594,0.072265625,-0.2607422,-70.375,72.0625,-25.84375,0.0,0.0,0.0
1695729241390,-1.0224609,0.0107421875,-0.15625,-3.0625,32.6875,-5.375,0.0,0.0,0.0
1695729241422,-1.046875,-0.029296875,-0.19628906,-8.875,26.28125,-1.40625,0.0,0.0,0.0
1695729241450,-1.0556641,-0.055664062,-0.12402344,-58.84375,15.5625,-7.40625,0.0,0.0,0.0
1695729241510,-1.0224609,-0.020507812,-0.26953125,-67.59375,0.46875,-10.4375,0.0,0.0,0.0
1695729241539,-1.109375,-0.020507812,-0.19824219,18.21875,-11.5,0.0,0.0,0.0,0.0
1695729241600,-0.9042969,0.033203125,-0.11230469,19.9375,-22.84375,7.90625,-73.375,-22.9375,-141.9375
1695729241630,-0.8886719,0.072265625,-0.30371094,-77.78125,-52.25,5.34375,0.0,0.0,0.0
1695729241660,-1.1894531,0.07714844,-0.39160156,-43.09375,-43.34375,16.90625,0.0,0.0,0.0
1695729241689,-0.8886719,-0.022460938,0.0625,139.09375,10.59375,33.90625,0.0,0.0,0.0
1695729241749,-0.87890625,-0.0546875,0.5390625,222.46875,-158.78125,47.40625,0.0,0.0,0.0
1695729241780,-0.66503906,-0.28027344,0.25976562,-86.3125,-23.5,-7.09375,0.0,0.0,0.0
1695729241810,-0.54003906,0.3701172,0.22265625,-100.90625,48.8125,-34.0625,0.0,0.0,0.0
1695729241870,-1.7978516,0.36816406,0.9824219,66.5,-21.25,55.15625,0.0,0.0,0.0
1695729241899,-0.87402344,-0.24902344,-0.73828125,-12.71875,-403.9375,44.125,0.0,0.0,0.0
1695729241929,-0.42285156,0.11035156,1.2685547,140.65625,-11.3125,-9.84375,0.0,0.0,0.0
1695729241990,-1.2128906,0.111328125,0.17382812,-83.28125,-82.90625,15.1875,0.0,0.0,0.0
1695729242020,-0.8173828,-0.3125,0.7578125,-21.4375,-88.5625,11.15625,0.0,0.0,0.0
1695729242079,-0.6953125,0.2783203,0.9199219,37.53125,-90.53125,32.5625,-69.875,-16.625,-108.1875
1695729242109,-0.7265625,0.15820312,0.6123047,-16.5,-55.4375,2.0625,0.0,0.0,0.0
1695729242142,-0.78808594,0.10644531,1.0078125,-1.96875,-62.5,11.59375,0.0,0.0,0.0
1695729242172,-0.5839844,0.14550781,1.0107422,9.3125,-40.96875,14.3125,0.0,0.0,0.0
1695729242229,-0.6796875,0.13769531,0.69628906,15.0,-18.8125,19.75,0.0,0.0,0.0
1695729242259,-0.5576172,0.25097656,0.5888672,49.125,-25.46875,8.21875,0.0,0.0,0.0
1695729242289,-0.4091797,0.33691406,0.7734375,27.03125,-32.125,0.46875,0.0,0.0,0.0
1695729242349,-0.3408203,0.19042969,0.6328125,23.46875,-43.34375,10.25,0.0,0.0,0.0
1695729242379,-0.4111328,0.41015625,1.2998047,69.9375,-37.4375,5.21875,0.0,0.0,0.0
1695729242411,-0.6923828,0.30859375,0.98535156,-61.0,-5.375,-14.65625,0.0,0.0,0.0
1695729242472,-0.5683594,0.30664062,0.89160156,-41.75,-13.125,-24.5,0.0,0.0,0.0
1695729242499,-0.375,0.33496094,0.86035156,0.84375,-70.5625,-5.875,0.0,0.0,0.0
1695729242530,-0.11425781,0.10644531,0.7392578,15.25,-42.4375,-30.28125,0.0,0.0,0.0
1695729242593,-0.12597656,0.32421875,0.8408203,-14.40625,-33.46875,-24.625,-55.625,-11.8125,-94.5625
1695729242621,-0.42578125,0.26367188,0.8076172,0.71875,-47.875,14.8125,0.0,0.0,0.0
1695729242649,-0.111328125,0.2109375,0.88964844,35.1875,-26.75,9.5,0.0,0.0,0.0
1695729242711,-0.11425781,0.14355469,0.9013672,-34.375,-17.53125,9.03125,0.0,0.0,0.0
1695729242739,-0.31835938,0.09667969,0.7001953,1.9375,-1.96875,17.5,0.0,0.0,0.0
1695729242768,-0.2421875,0.27441406,0.8857422,22.9375,0.53125,-2.03125,0.0,0.0,0.0
1695729242829,-0.13574219,0.22363281,0.7578125,0.84375,22.25,-8.625,0.0,0.0,0.0
1695729242858,-0.2607422,0.20703125,0.8564453,-0.375,27.09375,-1.65625,0.0,0.0,0.0
1695729242891,-0.22753906,0.23632812,0.92285156,6.9375,33.90625,-11.84375,0.0,0.0,0.0
1695729242950,-0.22949219,0.16308594,0.81933594,-5.09375,41.625,-12.21875,0.0,0.0,0.0
1695729242980,-0.28320312,0.23632812,0.8642578,4.5625,43.3125,-11.625,0.0,0.0,0.0
1695729243009,-0.3388672,0.24316406,0.8642578,4.3125,44.53125,-13.0625,0.0,0.0,0.0
1695729243069,-0.3876953,0.19921875,0.7714844,-9.34375,47.21875,-9.125,-57.0,-12.125,-95.875
1695729243101,-0.359375,0.16503906,0.7597656,-11.84375,57.34375,-13.25,0.0,0.0,0.0
1695729243130,-0.6503906,0.2578125,0.9921875,-35.0625,45.28125,-10.9375,0.0,0.0,0.0
1695729243189,-0.5234375,0.18164062,1.1669922,-21.625,10.65625,-7.9375,0.0,0.0,0.0
1695729243219,-0.38183594,0.23144531,0.7363281,-27.0625,20.8125,5.59375,0.0,0.0,0.0
1695729243249,-0.24902344,0.48632812,0.96972656,-11.3125,9.4375,27.21875,0.0,0.0,0.0
1695729243310,-0.7158203,0.06347656,0.9003906,-26.0625,84.9375,11.28125,0.0,0.0,0.0
1695729243341,-0.6113281,-0.111328125,0.97753906,37.46875,87.25,-5.5,0.0,0.0,0.0
1695729243369,-1.0898438,0.2919922,0.78222656,5.0625,94.46875,7.5625,0.0,0.0,0.0
1695729243429,-0.92871094,0.18554688,0.7109375,12.5,105.625,-1.78125,0.0,0.0,0.0
1695729243491,-0.99609375,0.23144531,0.6201172,1.15625,114.78125,-17.65625,0.0,0.0,0.0
1695729243494,-0.92285156,0.2109375,0.49609375,5.53125,112.15625,-16.0,0.0,0.0,0.0
1695729243549,-0.7050781,0.13476562,0.39160156,10.59375,94.65625,-33.15625,0.0,0.0,0.0
1695729243580,-0.46289062,0.21289062,0.43066406,29.09375,120.09375,-48.125,-75.3125,-16.625,-121.125
1695729243610,-0.8105469,0.12597656,0.20214844,-19.25,155.875,-35.59375,0.0,0.0,0.0
1695729243670,-0.890625,0.053710938,0.18847656,-29.4375,148.0,-28.65625,0.0,0.0,0.0
1695729243699,-0.88183594,-0.029296875,0.33789062,-0.1875,116.4375,-47.75,0.0,0.0,0.0
1695729243730,-0.7529297,0.13378906,0.13574219,-2.34375,69.1875,-45.125,0.0,0.0,0.0
1695729243791,-0.890625,0.055664062,-0.19238281,-69.59375,55.78125,-9.0625,0.0,0.0,0.0
1695729243819,-0.91015625,0.02734375,-0.36035156,-7.34375,3.84375,5.90625,0.0,0.0,0.0
1695729243848,-1.1728516,-0.09277344,-0.06933594,25.1875,48.5,3.46875,0.0,0.0,0.0
1695729243909,-1.0742188,-0.111328125,0.0126953125,-18.15625,14.6875,-14.65625,0.0,0.0,0.0
1695729243938,-1.1845703,0.11035156,-0.3564453,-81.375,-11.5625,-19.59375,0.0,0.0,0.0
1695729243969,-0.98046875,0.038085938,-0.045898438,34.28125,-2.03125,6.8125,0.0,0.0,0.0
1695729244030,-0.77246094,-0.07128906,-0.296875,-28.09375,-19.71875,7.0,0.0,0.0,0.0
1695729244059,-1.1660156,-0.06738281,-0.20410156,-13.0625,-20.21875,19.8125,-76.375,-24.125,-141.0625
1695729244089,-1.0966797,0.07324219,-0.12207031,38.9375,-28.75,23.1875,0.0,0.0,0.0
1695729244151,-0.80859375,-0.09863281,-0.2578125,74.25,-40.96875,37.71875,0.0,0.0,0.0
1695729244180,-0.8984375,-0.034179688,-0.20996094,67.0625,-53.3125,28.5,0.0,0.0,0.0
1695729244210,-1.3964844,0.21484375,0.5517578,-58.96875,113.875,27.28125,0.0,0.0,0.0
1695729244273,-0.8779297,-0.040039062,0.10253906,-3.4375,-217.78125,54.1875,0.0,0.0,0.0
1695729244300,-0.43652344,0.55566406,0.68847656,48.375,-194.0,24.875,0.0,0.0,0.0
1695729244330,-0.3125,0.42773438,0.6269531,-162.375,-75.625,31.53125,0.0,0.0,0.0
1695729244390,-0.87890625,0.01171875,-0.24316406,-58.96875,-56.78125,33.375,0.0,0.0,0.0
1695729244420,-1.0244141,-0.7001953,0.52734375,77.8125,-238.96875,6.15625,0.0,0.0,0.0
1695729244449,-1.7744141,0.453125,0.75390625,55.28125,-106.59375,38.6875,0.0,0.0,0.0
1695729244510,-0.9189453,0.4736328,0.7734375,38.1875,-127.03125,74.625,0.0,0.0,0.0
1695729244542,-0.671875,0.22363281,0.7246094,-29.8125,-88.28125,-20.28125,0.0,0.0,0.0
1695729244569,-0.72558594,0.055664062,0.8798828,-20.28125,-73.0,-2.9375,-65.6875,-14.6875,-104.625
1695729244630,-0.81640625,-0.047851562,1.0068359,-13.875,-41.34375,9.25,0.0,0.0,0.0
1695729244661,-0.7597656,0.09375,0.703125,21.28125,-8.625,4.8125,0.0,0.0,0.0
1695729244689,-0.5410156,0.2705078,0.7402344,68.09375,-34.5625,9.03125,0.0,0.0,0.0
1695729244749,-0.5107422,0.25878906,1.1025391,15.78125,-59.40625,14.5,0.0,0.0,0.0
1695729244781,-0.73828125,0.30566406,1.2636719,-5.375,-48.40625,4.0,0.0,0.0,0.0
1695729244811,-0.4892578,0.040039062,0.93652344,-22.53125,-7.59375,-36.21875,0.0,0.0,0.0
1695729244869,-0.40039062,0.16308594,0.36035156,-85.40625,-38.34375,-15.40625,0.0,0.0,0.0
1695729244900,-0.171875,-0.07128906,0.4638672,76.65625,-88.40625,11.40625,0.0,0.0,0.0
1695729244929,-0.3076172,0.546875,1.1923828,114.84375,-56.65625,-29.3125,0.0,0.0,0.0
1695729244990,-0.05859375,0.30664062,0.7324219,-50.78125,16.84375,-27.53125,0.0,0.0,0.0
1695729245021,-0.038085938,0.1640625,0.8330078,18.34375,-17.71875,0.09375,0.0,0.0,0.0
1695729245050,-0.24902344,0.11230469,0.9501953,-20.84375,0.34375,9.125,-54.875,-13.4375,-93.1875
1695729245109,-0.2998047,0.0390625,0.6796875,-25.90625,6.8125,10.59375,0.0,0.0,0.0
1695729245139,-0.3330078,0.23632812,0.8730469,17.375,13.84375,6.8125,0.0,0.0,0.0
1695729245170,-0.24414062,0.15917969,0.8417969,0.65625,25.125,-6.71875,0.0,0.0,0.0
1695729245229,-0.36816406,0.125,0.80859375,-12.53125,43.0,-15.28125,0.0,0.0,0.0
1695729245260,-0.3466797,0.13867188,0.84277344,6.6875,37.15625,-12.40625,0.0,0.0,0.0
1695729245289,-0.2685547,0.123046875,0.8105469,10.71875,54.625,-21.0625,0.0,0.0,0.0
1695729245352,-0.36621094,0.08984375,0.8154297,-11.125,46.875,0.84375,0.0,0.0,0.0
1695729245383,-0.42871094,0.16699219,0.6845703,-18.375,68.46875,-7.28125,0.0,0.0,0.0
1695729245409,-0.6347656,0.15039062,1.1054688,-1.25,78.46875,-24.84375,0.0,0.0,0.0
1695729245470,-0.9863281,0.05078125,1.4121094,21.34375,-61.84375,15.5625,0.0,0.0,0.0
1695729245500,-0.37597656,0.38476562,0.33007812,-59.53125,39.0,-13.8125,0.0,0.0,0.0
1695729245529,-0.33203125,0.50390625,0.6425781,25.125,-3.0,50.15625,0.0,0.0,0.0
1695729245590,-0.55078125,0.38085938,1.34375,-5.625,14.875,63.40625,-62.6875,-15.875,-98.875
1695729245619,-0.8486328,-0.12988281,0.4638672,11.28125,117.1875,18.65625,0.0,0.0,0.0
1695729245650,-0.67089844,0.17675781,1.0439453,11.28125,71.9375,24.75,0.0,0.0,0.0
1695729245709,-0.9013672,-0.0126953125,0.8515625,22.125,66.15625,16.34375,0.0,0.0,0.0
1695729245769,-0.88964844,0.13574219,0.8378906,20.96875,80.5,9.375,0.0,0.0,0.0
1695729245772,-0.8027344,0.22167969,0.62597656,-8.75,89.59375,-16.4375,0.0,0.0,0.0
1695729245830,-0.8095703,0.19042969,0.53222656,-2.8125,99.96875,-22.96875,0.0,0.0,0.0
1695729245861,-0.40820312,-0.0703125,0.4345703,6.875,131.875,-42.4375,0.0,0.0,0.0
1695729245891,-0.7763672,0.38476562,0.4423828,17.6875,146.15625,-28.09375,0.0,0.0,0.0
1695729245949,-0.71875,0.31445312,0.2685547,-34.0,182.0,-70.5,0.0,0.0,0.0
1695729245984,-1.0341797,0.2578125,0.18847656,28.1875,99.53125,-17.28125,0.0,0.0,0.0
1695729246012,-0.453125,-0.10546875,0.3876953,-46.53125,102.09375,-69.28125,0.0,0.0,0.0
1695729246068,-0.7470703,-0.10253906,0.029296875,-19.125,50.34375,-38.96875,-76.1875,-21.125,-136.375
1695729246098,-1.1015625,-0.16992188,-0.20019531,-100.0,117.65625,-26.375,0.0,0.0,0.0
1695729246129,-0.8984375,0.09472656,-0.37597656,-48.40625,63.28125,-28.40625,0.0,0.0,0.0
1695729246189,-1.09375,0.20019531,-0.13867188,53.8125,37.15625,3.46875,0.0,0.0,0.0
1695729246220,-1.0898438,-0.15039062,-0.083984375,13.53125,24.71875,14.28125,0.0,0.0,0.0
1695729246249,-1.0859375,-0.15917969,-0.22851562,-53.3125,-16.3125,-10.8125,0.0,0.0,0.0
1695729246310,-1.0283203,0.1640625,-0.17480469,-45.65625,16.28125,-24.25,0.0,0.0,0.0
1695729246341,-1.0273438,-0.026367188,-0.029296875,72.4375,5.21875,18.28125,0.0,0.0,0.0
1695729246369,-0.9863281,-0.1015625,-0.18554688,-27.59375,-65.3125,13.71875,0.0,0.0,0.0
1695729246430,-1.0058594,0.0087890625,-0.20507812,-36.28125,-61.78125,9.6875,0.0,0.0,0.0
1695729246460,-0.9140625,-0.087890625,-0.24511719,22.125,-49.40625,34.96875,0.0,0.0,0.0
1695729246490,-1.0244141,-0.23046875,-0.0859375,46.625,68.65625,-15.46875,0.0,0.0,0.0
1695729246550,-1.1347656,0.171875,0.32421875,142.5,-228.59375,54.4375,0.0,0.0,0.0
1695729246580,-0.3330078,-0.05078125,0.13867188,-24.25,-124.34375,15.5,-76.0625,-20.1875,-133.875
1695729246611,-1.0039062,0.18066406,0.61035156,-24.375,37.53125,-45.25,0.0,0.0,0.0
1695729246670,-1.6953125,0.6464844,0.32714844,11.9375,59.25,-20.46875,0.0,0.0,0.0
1695729246701,-0.3154297,-0.21875,-0.14355469,181.3125,-714.75,198.40625,0.0,0.0,0.0
1695729246729,-0.13378906,0.005859375,0.82128906,-21.4375,-2.28125,-43.34375,0.0,0.0,0.0
1695729246791,-1.1015625,-0.203125,0.60546875,-2.15625,-89.84375,37.15625,0.0,0.0,0.0
1695729246819,-1.0800781,0.36621094,0.6611328,30.1875,-48.46875,20.84375,0.0,0.0,0.0
1695729246850,-0.6621094,0.36035156,0.5908203,-12.21875,-67.59375,10.84375,0.0,0.0,0.0
1695729246909,-0.85253906,0.33496094,0.8642578,-14.0,-64.78125,11.59375,0.0,0.0,0.0
1695729246940,-0.53808594,0.091796875,0.81933594,12.5625,-45.125,11.28125,0.0,0.0,0.0
1695729246968,-0.63183594,0.21289062,1.0878906,-6.4375,-53.53125,18.125,0.0,0.0,0.0
1695729247029,-0.6777344,0.057617188,0.82910156,-8.375,-31.5625,6.875,0.0,0.0,0.0
1695729247062,-0.69433594,0.0078125,0.5966797,-4.09375,-23.15625,9.9375,-62.375,-11.375,-100.875
1695729247089,-0.55859375,0.20898438,0.68652344,12.4375,-36.34375,4.8125,0.0,0.0,0.0
1695729247150,-0.30273438,0.25195312,0.7685547,34.65625,-34.1875,-19.90625,0.0,0.0,0.0
1695729247180,-0.40039062,0.42089844,0.8457031,87.5625,-16.375,-15.75,0.0,0.0,0.0
1695729247209,-0.53515625,0.48242188,1.4833984,65.59375,-29.125,-36.5625,0.0,0.0,0.0
1695729247269,-0.99902344,0.30371094,0.8544922,-137.46875,-42.5,2.125,0.0,0.0,0.0
1695729247305,-0.5136719,0.37402344,0.46875,28.78125,-74.90625,-39.5625,0.0,0.0,0.0
1695729247330,0.13671875,0.59375,0.52246094,134.9375,-98.65625,-42.5625,0.0,0.0,0.0
1695729247391,0.064453125,0.29492188,1.2412109,-12.21875,-48.21875,-22.59375,0.0,0.0,0.0
1695729247420,-0.42285156,0.19433594,0.4873047,-67.03125,-33.84375,-1.84375,0.0,0.0,0.0
1695729247449,-0.022460938,0.52246094,1.1484375,83.96875,-25.40625,2.3125,0.0,0.0,0.0
1695729247509,-0.1875,0.20214844,0.6738281,-121.96875,4.9375,0.84375,0.0,0.0,0.0
1695729247539,-0.16992188,0.2783203,0.6425781,12.6875,-6.0625,24.03125,0.0,0.0,0.0
1695729247571,-0.20898438,0.22851562,1.1611328,48.6875,0.21875,10.59375,-49.9375,-9.6875,-92.75
1695729247629,-0.18652344,0.19628906,0.78027344,-48.84375,6.21875,14.21875,0.0,0.0,0.0
1695729247660,-0.2265625,0.27539062,0.6699219,28.625,10.1875,8.71875,0.0,0.0,0.0
1695729247689,-0.18359375,0.33984375,1.0292969,29.9375,16.53125,6.34375,0.0,0.0,0.0
1695729247748,-0.20019531,0.27734375,0.7998047,-15.28125,19.6875,7.625,0.0,0.0,0.0
1695729247778,-0.18847656,0.2890625,0.89160156,8.71875,23.59375,11.15625,0.0,0.0,0.0
1695729247809,-0.24511719,0.2734375,0.7783203,-19.71875,40.8125,1.5,0.0,0.0,0.0
1695729247868,-0.28808594,0.2529297,0.796875,3.59375,39.34375,-5.5,0.0,0.0,0.0
1695729247898,-0.31054688,0.3095703,1.0195312,25.625,42.84375,-15.40625,0.0,0.0,0.0
1695729247929,-0.3486328,0.26367188,0.71484375,-48.59375,49.1875,-9.59375,0.0,0.0,0.0
1695729247989,-0.2919922,0.25195312,0.75,2.71875,65.65625,-21.8125,0.0,0.0,0.0
1695729248053,-0.30859375,0.22070312,0.7314453,-27.78125,74.375,-17.40625,0.0,0.0,0.0
1695729248056,-0.5800781,0.2861328,0.9736328,-79.53125,93.0,-20.40625,-61.375,-12.875,-98.4375
1695729248109,-0.6152344,0.27929688,1.625,-23.5625,-71.90625,13.40625,0.0,0.0,0.0
1695729248139,-0.20410156,0.2861328,0.41210938,-162.75,77.375,-1.84375,0.0,0.0,0.0
1695729248169,-0.86816406,0.3984375,1.0205078,117.34375,-45.5,69.375,0.0,0.0,0.0
1695729248230,-0.56933594,-0.21191406,0.4814453,-35.84375,112.71875,-17.34375,0.0,0.0,0.0
1695729248260,-0.7294922,0.038085938,1.1630859,37.34375,73.84375,10.1875,0.0,0.0,0.0
1695729248289,-0.9267578,0.037109375,0.828125,-13.8125,77.75,30.6875,0.0,0.0,0.0
1695729248350,-0.91308594,0.12402344,0.6982422,13.03125,110.21875,-8.0,0.0,0.0,0.0
1695729248380,-0.9453125,0.1328125,0.5673828,15.3125,119.75,-14.53125,0.0,0.0,0.0
1695729248409,-0.92578125,0.0029296875,0.453125,-3.90625,128.65625,-18.9375,0.0,0.0,0.0
1695729248469,-0.54003906,0.0234375,0.5371094,38.3125,113.15625,-49.34375,0.0,0.0,0.0
1695729248499,-0.4033203,0.4560547,0.3798828,39.0,165.875,-69.28125,0.0,0.0,0.0
1695729248529,-0.71191406,0.2265625,0.24902344,-20.15625,156.84375,-33.65625,0.0,0.0,0.0
1695729248589,-1.2041016,-0.056640625,0.07910156,-26.125,112.46875,-11.90625,-75.75,-21.125,-131.3125
1695729248620,-0.9091797,0.0,0.17675781,-19.3125,73.65625,-30.34375,0.0,0.0,0.0
1695729248650,-0.82910156,0.14648438,0.0078125,-44.75,42.34375,-28.875,0.0,0.0,0.0
1695729248710,-0.77246094,0.0078125,-0.13867188,10.1875,57.84375,-17.09375,0.0,0.0,0.0
1695729248742,-1.0927734,-0.2421875,-0.22753906,-8.875,50.28125,-6.84375,0.0,0.0,0.0
1695729248772,-0.98339844,-0.09765625,-0.296875,-23.6875,7.4375,-18.5,0.0,0.0,0.0
1695729248830,-1.0771484,0.16894531,-0.16796875,-32.5625,39.0,-15.03125,0.0,0.0,0.0
1695729248859,-1.1035156,0.083984375,-0.17480469,21.84375,44.59375,-11.5625,0.0,0.0,0.0
1695729248889,-1.0107422,0.041992188,-0.12792969,5.46875,7.625,5.34375,0.0,0.0,0.0
1695729248951,-1.0839844,-0.055664062,-0.15820312,-3.625,-6.375,21.34375,0.0,0.0,0.0
1695729248980,-0.88183594,0.041015625,-0.21289062,-69.40625,-13.25,0.15625,0.0,0.0,0.0
1695729249010,-1.0126953,0.01171875,-0.08691406,15.125,-30.40625,44.46875,0.0,0.0,0.0
1695729249070,-0.88964844,0.045898438,-0.021484375,58.875,-148.15625,79.75,-76.1875,-21.6875,-141.1875
1695729249099,-0.9003906,-0.14257812,0.21679688,32.75,-123.96875,23.375,0.0,0.0,0.0
1695729249130,-0.92871094,0.3720703,0.546875,26.40625,-158.71875,36.65625,0.0,0.0,0.0
1695729249190,-0.99902344,0.095703125,0.1328125,-44.75,-105.125,26.90625,0.0,0.0,0.0
1695729249222,-0.42578125,0.080078125,0.25,6.40625,-132.9375,-27.34375,0.0,0.0,0.0
1695729249250,-0.49414062,-0.18457031,0.2109375,-26.8125,-141.3125,14.375,0.0,0.0,0.0
1695729249343,-0.75683594,0.24609375,1.0419922,14.75,-121.65625,21.53125,0.0,0.0,0.0
1695729249346,-0.9638672,0.13183594,0.18359375,-54.09375,-68.875,18.40625,0.0,0.0,0.0
1695729249371,-0.6748047,0.13574219,0.6035156,-73.4375,-77.78125,11.15625,0.0,0.0,0.0
1695729249429,-0.7294922,-0.13183594,0.7363281,2.5,-94.9375,11.59375,0.0,0.0,0.0
1695729249459,-0.7441406,0.041992188,0.9121094,-14.59375,-67.9375,15.65625,0.0,0.0,0.0
1695729249490,-0.7949219,0.0546875,0.7402344,-9.40625,-45.5625,4.5625,0.0,0.0,0.0
1695729249549,-0.5527344,0.15527344,1.046875,-28.34375,-53.84375,-5.625,0.0,0.0,0.0
1695729249580,-0.59277344,-0.09667969,0.8105469,2.375,-19.25,-2.875,-63.3125,-16.9375,-99.9375
1695729249609,-0.6689453,0.0078125,0.6533203,65.09375,-31.03125,15.0625,0.0,0.0,0.0
1695729249670,-0.5390625,0.2734375,0.79785156,92.40625,-40.1875,0.0,0.0,0.0,0.0
1695729249700,-0.5283203,0.20117188,0.796875,4.9375,-66.0,-2.40625,0.0,0.0,0.0
1695729249730,-0.7470703,0.32128906,1.7880859,91.84375,-93.9375,-13.03125,0.0,0.0,0.0
1695729249790,-0.5654297,0.17578125,0.9980469,-201.84375,-42.125,-44.15625,0.0,0.0,0.0
1695729249823,-0.359375,0.091796875,0.49121094,-72.90625,-71.5625,-105.3125,0.0,0.0,0.0
1695729249849,0.16601562,0.27148438,0.49609375,37.875,-78.875,-85.09375,0.0,0.0,0.0
