# Sensor type: Thingy
# Activity type: Ascending stairs
# Activity subtype: Normal
# Subject id: s1862623
# Notes: 
timestamp,accel_x,accel_y,accel_z,gyro_x,gyro_y,gyro_z,mag_x,mag_y,mag_z
1695813678578,-0.66015625,0.34570312,-0.78222656,-3.0625,-51.53125,-42.8125,0.0,0.0,0.0
1695813678626,-1.0527344,0.2109375,-0.17773438,-26.5625,-121.84375,-81.875,0.0,0.0,0.0
1695813678677,-1.0761719,0.033203125,-0.265625,-50.6875,-123.375,-79.65625,0.0,0.0,0.0
1695813678702,-1.3085938,0.29296875,-0.2578125,-73.625,-142.59375,-70.6875,0.0,0.0,0.0
1695813678727,-1.0380859,0.27441406,-0.30078125,-2.03125,-84.0625,-77.15625,0.0,0.0,0.0
1695813678778,-0.7792969,-0.0068359375,-0.20117188,4.625,-52.5625,-94.5,0.0,0.0,0.0
1695813678830,-0.7216797,-0.016601562,-0.0126953125,-31.21875,-71.125,-84.4375,0.0,0.0,0.0
1695813678853,-0.8720703,0.12792969,0.0048828125,-57.5,-84.84375,-69.84375,0.0,0.0,0.0
1695813678904,-1.1992188,0.31152344,0.059570312,-18.375,-49.46875,-74.0625,0.0,0.0,0.0
1695813678927,-0.9091797,0.08105469,0.021484375,23.0,-24.4375,-71.375,-87.125,11.75,-62.3125
1695813678977,-0.95996094,-0.10058594,-0.06347656,25.1875,-22.21875,-54.09375,0.0,0.0,0.0
1695813679028,-0.84472656,-0.0146484375,-0.0078125,-3.25,-25.59375,-42.0,0.0,0.0,0.0
1695813679053,-0.96191406,0.048828125,9.765625E-4,-19.71875,-26.0625,-34.9375,0.0,0.0,0.0
1695813679103,-0.80078125,0.140625,0.13867188,-3.0625,-14.25,-31.75,0.0,0.0,0.0
1695813679127,-0.85839844,0.0146484375,0.22851562,0.34375,-39.8125,-36.9375,0.0,0.0,0.0
1695813679178,-1.4433594,-0.28320312,-9.765625E-4,2.1875,-64.84375,-44.3125,0.0,0.0,0.0
1695813679228,-1.4921875,-0.3671875,-0.06640625,-23.34375,-42.75,-46.71875,0.0,0.0,0.0
1695813679253,-1.5742188,0.005859375,0.099609375,-40.78125,-17.09375,-31.8125,0.0,0.0,0.0
1695813679303,-1.3496094,0.016601562,-0.16894531,-19.96875,32.03125,35.875,0.0,0.0,0.0
1695813679327,-1.3164062,0.13378906,-0.14550781,-23.40625,92.09375,102.34375,0.0,0.0,0.0
1695813679378,-1.3095703,0.28222656,-0.20214844,7.8125,142.375,164.15625,0.0,0.0,0.0
1695813679429,-1.4863281,0.09082031,0.29101562,-82.78125,139.21875,174.1875,-90.0,9.1875,-60.5
1695813679454,-0.9121094,-0.5595703,0.29785156,16.40625,75.4375,152.75,0.0,0.0,0.0
1695813679503,-1.0029297,-0.040039062,-0.234375,174.3125,147.5,144.15625,0.0,0.0,0.0
1695813679529,-0.8339844,-0.024414062,-0.3623047,11.28125,112.53125,149.34375,0.0,0.0,0.0
1695813679579,-0.44628906,-0.028320312,0.030273438,16.90625,92.03125,93.78125,0.0,0.0,0.0
1695813679631,-0.4501953,0.10058594,-0.28320312,13.40625,71.15625,67.84375,0.0,0.0,0.0
1695813679654,-0.3642578,0.2109375,-0.28320312,61.6875,49.46875,23.46875,0.0,0.0,0.0
1695813679704,-0.14160156,0.16796875,-0.265625,41.125,-1.78125,-25.65625,0.0,0.0,0.0
1695813679729,-0.31152344,0.11328125,-0.29003906,-11.6875,-63.90625,-43.15625,0.0,0.0,0.0
1695813679779,-0.8125,0.50878906,-0.96777344,-77.65625,-81.8125,-65.9375,0.0,0.0,0.0
1695813679855,-2.0,0.9091797,0.024414062,-107.0,-126.78125,-88.9375,0.0,0.0,0.0
1695813679858,-0.40820312,-0.123046875,-0.087890625,-36.9375,-77.96875,-76.0,0.0,0.0,0.0
1695813679904,-0.8876953,0.19921875,-0.15625,29.28125,-77.59375,-65.625,0.0,0.0,0.0
1695813679929,-1.4931641,0.055664062,-0.0859375,11.34375,-84.5625,-75.40625,-90.3125,14.125,-74.625
1695813679979,-0.74902344,-0.028320312,-0.15234375,-8.75,-58.1875,-78.3125,0.0,0.0,0.0
1695813680054,-0.6699219,0.14746094,-0.041992188,-3.6875,-79.59375,-68.75,0.0,0.0,0.0
1695813680056,-1.0351562,0.17675781,-0.08691406,8.09375,-58.84375,-74.28125,0.0,0.0,0.0
1695813680103,-0.9667969,-0.049804688,-0.0390625,34.28125,-41.75,-71.0625,0.0,0.0,0.0
1695813680128,-0.765625,-0.14355469,-0.0703125,28.78125,-39.125,-68.9375,0.0,0.0,0.0
1695813680204,-0.9189453,0.17089844,-0.015625,13.90625,-52.5625,-67.71875,0.0,0.0,0.0
1695813680229,-0.9453125,0.19140625,0.03515625,17.125,-46.09375,-43.53125,0.0,0.0,0.0
1695813680253,-1.0039062,0.018554688,0.0859375,26.78125,-31.375,-41.03125,0.0,0.0,0.0
1695813680304,-1.1142578,-0.13378906,-0.04296875,23.25,-23.6875,-36.5,0.0,0.0,0.0
1695813680329,-1.6347656,-0.52441406,0.036132812,-38.46875,-39.3125,-46.65625,0.0,0.0,0.0
1695813680379,-1.4785156,0.15917969,0.16113281,-60.875,-25.34375,-45.5,0.0,0.0,0.0
1695813680456,-1.9033203,-0.33398438,0.18457031,-49.46875,-12.28125,-33.03125,-91.375,-4.625,-47.9375
1695813680458,-1.2255859,0.1328125,-0.5361328,-22.46875,71.6875,48.25,0.0,0.0,0.0
1695813680504,-1.2138672,0.6533203,-0.064453125,30.25,153.96875,155.125,0.0,0.0,0.0
1695813680527,-1.6064453,-0.45507812,-0.08496094,-77.34375,115.09375,170.875,0.0,0.0,0.0
1695813680603,-0.9980469,-0.4921875,0.0546875,-41.6875,164.15625,156.46875,0.0,0.0,0.0
1695813680628,-0.74121094,-0.5136719,0.4248047,42.96875,93.5,152.6875,0.0,0.0,0.0
1695813680654,-1.1064453,0.38867188,-0.6308594,61.9375,140.0,173.5625,0.0,0.0,0.0
1695813680705,-0.6142578,0.072265625,0.18554688,48.5625,135.90625,134.03125,0.0,0.0,0.0
1695813680728,-0.28515625,-0.0625,-0.13085938,23.4375,92.40625,81.34375,0.0,0.0,0.0
1695813680779,-0.3076172,0.1171875,-0.3095703,64.9375,64.875,49.3125,0.0,0.0,0.0
1695813680829,-0.24023438,0.1328125,-0.3203125,41.84375,15.96875,-16.1875,0.0,0.0,0.0
1695813680853,-0.19433594,-0.047851562,-0.33789062,-25.34375,-71.4375,-45.65625,0.0,0.0,0.0
1695813680903,-0.6015625,0.23144531,-0.5,-104.875,-128.375,-65.4375,0.0,0.0,0.0
1695813680929,-2.0,1.0820312,0.7792969,-147.0,-168.65625,-93.21875,-91.1875,23.0,-82.375
1695813680979,-0.65625,0.0078125,-0.038085938,-4.96875,-59.78125,-69.34375,0.0,0.0,0.0
1695813681029,-0.7792969,0.0146484375,-0.21972656,27.9375,-74.59375,-74.59375,0.0,0.0,0.0
1695813681055,-1.5732422,-0.08300781,-0.049804688,8.40625,-86.875,-82.28125,0.0,0.0,0.0
1695813681105,-0.8574219,-0.107421875,-0.17480469,-29.125,-48.34375,-86.4375,0.0,0.0,0.0
1695813681129,-0.68359375,0.06542969,-0.001953125,-20.09375,-61.34375,-75.8125,0.0,0.0,0.0
1695813681180,-1.0566406,0.20410156,0.08984375,0.78125,-41.21875,-89.125,0.0,0.0,0.0
1695813681231,-0.9042969,0.1171875,0.043945312,32.09375,-35.53125,-69.53125,0.0,0.0,0.0
1695813681255,-0.8417969,0.0048828125,-0.026367188,33.5,-44.03125,-48.125,0.0,0.0,0.0
1695813681305,-0.8935547,-0.0078125,-0.016601562,12.6875,-47.125,-43.46875,0.0,0.0,0.0
1695813681329,-0.9970703,-0.026367188,-0.015625,-6.5,-29.8125,-35.125,0.0,0.0,0.0
1695813681379,-1.1640625,-0.017578125,-0.046875,-22.34375,-39.03125,-43.90625,0.0,0.0,0.0
1695813681431,-1.4726562,-0.033203125,0.0029296875,-23.03125,-26.25,-56.09375,-95.875,-5.9375,-50.9375
1695813681456,-1.4882812,-0.24902344,-0.12207031,-7.46875,-14.53125,-39.0625,0.0,0.0,0.0
1695813681506,-1.6523438,9.765625E-4,-0.037109375,-39.25,27.03125,-12.46875,0.0,0.0,0.0
1695813681529,-1.1113281,-0.07910156,-0.3857422,-75.5625,75.1875,63.28125,0.0,0.0,0.0
1695813681580,-1.2333984,0.0234375,-0.21289062,-119.03125,70.125,141.59375,0.0,0.0,0.0
1695813681631,-1.3837891,0.109375,-0.017578125,-72.40625,120.15625,198.34375,0.0,0.0,0.0
1695813681655,-1.1162109,-0.10546875,0.2919922,15.65625,106.96875,165.9375,0.0,0.0,0.0
1695813681708,-0.98046875,-0.3017578,-0.30371094,33.3125,91.40625,148.53125,0.0,0.0,0.0
1695813681728,-0.8378906,0.00390625,-0.13085938,101.78125,135.65625,144.75,0.0,0.0,0.0
1695813681779,-0.75097656,0.036132812,-0.08496094,14.875,104.15625,135.3125,0.0,0.0,0.0
1695813681829,-0.33984375,0.01953125,-0.234375,31.0625,94.96875,71.34375,0.0,0.0,0.0
1695813681856,-0.3701172,0.14550781,-0.29003906,37.09375,63.46875,37.71875,0.0,0.0,0.0
1695813681903,-0.25195312,0.15234375,-0.28027344,41.5,19.03125,-10.625,0.0,0.0,0.0
1695813681929,-0.14550781,0.18554688,-0.31054688,-46.03125,-56.0,-32.65625,-85.375,30.9375,-87.9375
1695813681981,-0.53027344,0.53027344,-0.20214844,-47.5625,-94.375,-45.125,0.0,0.0,0.0
1695813682029,-1.5546875,0.5859375,-1.2392578,-29.96875,-109.28125,-65.8125,0.0,0.0,0.0
1695813682055,-1.7128906,0.18359375,-0.59375,4.625,-99.0,-62.15625,0.0,0.0,0.0
1695813682104,-0.70996094,-0.048828125,-0.14550781,-20.28125,-102.625,-72.84375,0.0,0.0,0.0
1695813682129,-1.2587891,-0.01953125,-0.12011719,8.09375,-101.46875,-75.40625,0.0,0.0,0.0
1695813682180,-1.2255859,-0.001953125,-0.15332031,7.3125,-52.1875,-81.8125,0.0,0.0,0.0
1695813682230,-0.7285156,0.0087890625,-0.12988281,-20.40625,-49.15625,-76.8125,0.0,0.0,0.0
1695813682254,-0.7919922,0.20507812,9.765625E-4,-18.3125,-52.875,-77.28125,0.0,0.0,0.0
1695813682304,-1.0683594,0.20605469,0.06347656,6.28125,-46.53125,-78.25,0.0,0.0,0.0
1695813682329,-0.9042969,0.10644531,0.015625,34.21875,-32.4375,-66.78125,0.0,0.0,0.0
1695813682380,-0.82128906,0.020507812,0.044921875,28.0,-32.25,-54.40625,0.0,0.0,0.0
1695813682429,-0.9296875,0.095703125,-0.055664062,19.40625,-38.84375,-49.75,-99.125,-4.9375,-54.6875
1695813682479,-1.0078125,0.043945312,0.0234375,0.90625,-36.09375,-31.5625,0.0,0.0,0.0
1695813682504,-1.2880859,-0.16796875,0.009765625,20.3125,-41.9375,-57.875,0.0,0.0,0.0
1695813682528,-1.2871094,-0.1953125,-0.06738281,11.09375,-24.6875,-50.25,0.0,0.0,0.0
1695813682579,-1.3955078,-0.12402344,-0.09472656,-28.9375,-22.0625,-42.0,0.0,0.0,0.0
1695813682628,-1.6904297,0.1015625,0.07519531,-39.9375,12.4375,-0.9375,0.0,0.0,0.0
1695813682653,-1.2412109,-0.24609375,-0.29101562,-42.6875,67.96875,79.15625,0.0,0.0,0.0
1695813682704,-1.3300781,-0.07421875,-0.33203125,-90.78125,110.40625,130.59375,0.0,0.0,0.0
1695813682731,-1.3554688,0.07324219,-0.025390625,-127.625,152.4375,181.875,0.0,0.0,0.0
1695813682778,-1.2216797,-0.20996094,0.47460938,-10.28125,84.21875,171.125,0.0,0.0,0.0
1695813682831,-1.0205078,-0.20996094,-0.3671875,16.65625,106.25,135.90625,0.0,0.0,0.0
1695813682857,-0.93359375,0.30566406,-0.36328125,104.28125,168.4375,148.84375,0.0,0.0,0.0
1695813682906,-0.5488281,-0.12988281,0.14746094,17.3125,122.125,119.0625,0.0,0.0,0.0
1695813682931,-0.37402344,0.10449219,-0.25195312,1.3125,110.53125,70.90625,-91.1875,29.125,-87.625
1695813682979,-0.29492188,0.17578125,-0.234375,32.46875,79.09375,31.40625,0.0,0.0,0.0
1695813683031,-0.16796875,0.28027344,-0.29589844,45.875,50.40625,-24.625,0.0,0.0,0.0
1695813683056,-0.24121094,0.09375,-0.26953125,-33.40625,-18.8125,-41.28125,0.0,0.0,0.0
1695813683107,-0.4580078,0.4013672,-0.55371094,-82.0,-43.03125,-35.78125,0.0,0.0,0.0
1695813683128,-0.94433594,0.3779297,-1.21875,-12.96875,-70.4375,-70.625,0.0,0.0,0.0
1695813683179,-1.8398438,1.0166016,0.55859375,-12.71875,-62.09375,-52.09375,0.0,0.0,0.0
1695813683231,-0.7705078,0.12597656,-0.12695312,-14.0625,-61.84375,-129.03125,0.0,0.0,0.0
1695813683254,-0.7714844,-0.05078125,-0.31152344,-47.6875,-104.25,-78.03125,0.0,0.0,0.0
1695813683304,-1.3095703,0.12695312,-0.1171875,-51.65625,-123.375,-55.9375,0.0,0.0,0.0
1695813683330,-0.9794922,0.15429688,-0.111328125,-44.09375,-87.59375,-66.46875,0.0,0.0,0.0
1695813683379,-0.7373047,0.021484375,-0.10839844,-40.40625,-87.78125,-63.90625,0.0,0.0,0.0
1695813683429,-1.0722656,0.013671875,-0.01953125,-54.6875,-86.125,-63.625,-97.375,8.4375,-65.0
1695813683454,-0.94433594,0.10839844,-0.09765625,-18.375,-46.46875,-57.75,0.0,0.0,0.0
1695813683504,-0.7939453,-0.15136719,0.1015625,-24.5,-18.4375,-64.96875,0.0,0.0,0.0
1695813683531,-1.0263672,0.18945312,0.3359375,-37.75,-37.3125,-63.5625,0.0,0.0,0.0
1695813683578,-0.8847656,0.07910156,0.11230469,-48.65625,-62.46875,-61.90625,0.0,0.0,0.0
1695813683628,-0.9863281,0.041015625,0.10644531,-21.125,-59.40625,-55.8125,0.0,0.0,0.0
1695813683653,-0.9785156,0.049804688,0.021484375,-26.1875,-60.5,-63.4375,0.0,0.0,0.0
1695813683703,-1.1210938,0.27148438,-0.061523438,-65.1875,-54.15625,-52.125,0.0,0.0,0.0
1695813683728,-1.1152344,0.22558594,-0.01171875,-61.90625,-18.5,-11.0,0.0,0.0,0.0
1695813683779,-1.2460938,0.20898438,-0.28808594,-95.0625,53.5,61.4375,0.0,0.0,0.0
1695813683829,-1.5234375,-0.0390625,-0.27539062,-76.1875,134.125,161.71875,0.0,0.0,0.0
1695813683854,-1.8554688,-0.41210938,0.043945312,-117.5,153.96875,166.25,0.0,0.0,0.0
1695813683905,-1.3876953,-0.87402344,-0.08691406,-132.09375,97.75,148.96875,0.0,0.0,0.0
1695813683929,-1.4482422,-0.140625,-0.08105469,-37.375,106.375,153.65625,-96.0,19.8125,-52.125
1695813684004,-1.1806641,0.45898438,-0.11425781,-18.75,134.1875,188.40625,0.0,0.0,0.0
1695813684029,-0.609375,0.09375,-0.18652344,12.5,145.125,108.25,0.0,0.0,0.0
1695813684054,-0.5263672,0.026367188,-0.18652344,40.8125,127.25,66.6875,0.0,0.0,0.0
1695813684104,-0.4794922,0.13574219,-0.25195312,41.96875,125.59375,63.28125,0.0,0.0,0.0
1695813684130,-0.50097656,0.39160156,-0.17285156,4.1875,73.90625,14.28125,0.0,0.0,0.0
1695813684179,-0.27539062,0.15039062,-0.38085938,5.21875,50.53125,-12.53125,0.0,0.0,0.0
1695813684229,-0.29589844,0.28710938,-0.54003906,-14.53125,8.40625,-19.71875,0.0,0.0,0.0
1695813684255,-0.44335938,0.375,-0.484375,-38.21875,-22.34375,-32.1875,0.0,0.0,0.0
1695813684305,-0.53808594,0.41210938,-0.60546875,-10.9375,-48.71875,-53.90625,0.0,0.0,0.0
1695813684328,-1.2685547,0.9667969,-0.6542969,-19.84375,-82.53125,-73.9375,0.0,0.0,0.0
1695813684385,-1.3486328,0.3779297,-0.7324219,-98.09375,-139.65625,-82.21875,0.0,0.0,0.0
1695813684454,-1.2490234,-0.40527344,-0.74316406,-66.1875,-69.65625,-52.375,-96.875,26.5625,-71.625
1695813684456,-0.7753906,-0.0146484375,-0.14550781,-98.53125,-110.25,-85.90625,0.0,0.0,0.0
1695813684504,-1.5722656,0.00390625,-0.140625,-52.625,-69.21875,-87.1875,0.0,0.0,0.0
1695813684529,-0.96875,0.0,-0.06542969,-58.96875,-43.53125,-91.1875,0.0,0.0,0.0
1695813684580,-0.64941406,0.041992188,0.057617188,-77.96875,-56.34375,-89.75,0.0,0.0,0.0
1695813684604,-1.0478516,0.37890625,0.2607422,-63.8125,-61.34375,-75.8125,0.0,0.0,0.0
1695813684655,-0.9941406,0.3095703,0.17675781,-5.625,-47.0625,-59.40625,0.0,0.0,0.0
1695813684705,-0.8417969,-0.076171875,-0.09667969,6.75,-33.78125,-49.46875,0.0,0.0,0.0
1695813684729,-0.86328125,-0.18847656,0.016601562,-17.96875,-21.625,-56.0,0.0,0.0,0.0
1695813684780,-1.0136719,0.048828125,0.018554688,-45.125,-30.84375,-51.15625,0.0,0.0,0.0
1695813684804,-0.98339844,0.23046875,0.1640625,-44.3125,-15.875,-39.0625,0.0,0.0,0.0
1695813684854,-1.1611328,0.08691406,0.087890625,-23.5625,-28.9375,-45.65625,0.0,0.0,0.0
1695813684903,-1.3125,-0.11328125,-0.03125,-6.96875,-35.53125,-59.90625,0.0,0.0,0.0
1695813684929,-1.4609375,-0.26953125,-0.034179688,-21.125,-31.09375,-65.875,-93.4375,8.0,-34.125
1695813684979,-1.4902344,-0.013671875,-0.15429688,-47.5625,29.40625,3.34375,0.0,0.0,0.0
1695813685004,-1.3203125,0.14160156,-0.3330078,-48.53125,86.96875,80.25,0.0,0.0,0.0
1695813685079,-1.1982422,0.5439453,-0.046875,-87.90625,89.46875,174.3125,0.0,0.0,0.0
1695813685105,-1.5869141,-0.03125,0.11816406,-63.1875,87.09375,191.5,0.0,0.0,0.0
1695813685132,-1.0185547,-0.35351562,0.107421875,33.4375,105.09375,163.8125,0.0,0.0,0.0
1695813685180,-0.85058594,-0.22949219,-0.25585938,81.59375,112.78125,130.40625,0.0,0.0,0.0
1695813685204,-1.0058594,0.26757812,-0.2265625,30.375,123.03125,154.84375,0.0,0.0,0.0
1695813685254,-0.63671875,-0.041992188,-0.05859375,10.46875,101.0625,112.53125,0.0,0.0,0.0
1695813685304,-0.45117188,0.13574219,-0.3095703,18.0625,93.78125,77.5,0.0,0.0,0.0
1695813685330,-0.265625,0.10449219,-0.33496094,51.6875,75.25,17.75,0.0,0.0,0.0
1695813685379,-0.19335938,0.25,-0.3154297,52.15625,32.5625,-44.15625,0.0,0.0,0.0
1695813685430,-0.28808594,0.28125,-0.12988281,-15.15625,-40.96875,-80.9375,-83.125,42.625,-67.375
1695813685454,-0.5517578,0.17773438,-0.41015625,-139.34375,-115.75,-101.9375,0.0,0.0,0.0
1695813685504,-2.0,1.3164062,0.6816406,-191.0,-165.25,-84.5,0.0,0.0,0.0
1695813685529,-0.6015625,0.044921875,0.18359375,-31.6875,-69.78125,-58.59375,0.0,0.0,0.0
1695813685579,-0.671875,0.12011719,-0.21582031,10.0,-76.375,-63.8125,0.0,0.0,0.0
1695813685605,-1.703125,0.024414062,-0.103515625,12.3125,-65.125,-77.78125,0.0,0.0,0.0
1695813685655,-0.7705078,-0.16210938,-0.19238281,-35.40625,-39.9375,-78.75,0.0,0.0,0.0
1695813685704,-0.81152344,0.04296875,0.03515625,-47.0,-47.5625,-74.90625,0.0,0.0,0.0
1695813685729,-1.2929688,0.28808594,0.14453125,-20.875,-23.9375,-81.375,0.0,0.0,0.0
1695813685779,-0.8535156,0.07714844,0.01171875,11.09375,-3.90625,-77.40625,0.0,0.0,0.0
1695813685804,-0.8076172,-0.046875,0.12890625,2.96875,-24.5,-70.75,0.0,0.0,0.0
1695813685855,-0.9394531,0.068359375,0.044921875,1.625,-39.03125,-55.25,0.0,0.0,0.0
1695813685905,-0.9316406,0.05078125,0.020507812,-9.40625,-35.96875,-49.5,0.0,0.0,0.0
1695813685930,-1.03125,-0.032226562,0.16796875,-15.625,-37.0,-38.46875,-86.6875,10.0625,-31.5625
1695813685979,-1.1191406,0.06542969,0.061523438,-7.40625,-44.8125,-56.90625,0.0,0.0,0.0
1695813686004,-1.3701172,-0.053710938,-0.055664062,3.28125,-63.3125,-67.71875,0.0,0.0,0.0
1695813686055,-1.2226562,-0.26367188,-0.0068359375,-6.25,-48.1875,-67.59375,0.0,0.0,0.0
1695813686107,-1.4882812,-0.13671875,-0.29589844,-5.6875,13.09375,-37.4375,0.0,0.0,0.0
1695813686129,-1.0009766,0.14746094,-0.21289062,-51.21875,86.09375,64.4375,0.0,0.0,0.0
1695813686179,-1.125,-0.0126953125,-0.051757812,-181.28125,115.21875,124.0625,0.0,0.0,0.0
1695813686206,-1.2714844,0.15820312,0.07128906,-96.21875,81.71875,175.15625,0.0,0.0,0.0
1695813686279,-1.3037109,-0.1484375,0.23339844,-52.125,8.09375,172.71875,0.0,0.0,0.0
1695813686305,-0.98046875,-0.3330078,-0.08691406,236.4375,142.375,127.1875,0.0,0.0,0.0
1695813686329,-0.98535156,-0.5234375,-0.140625,49.84375,108.5625,115.15625,0.0,0.0,0.0
1695813686380,-0.5888672,-0.25097656,-0.1484375,-81.125,67.4375,83.59375,0.0,0.0,0.0
1695813686429,-0.5390625,-0.12207031,-0.07910156,-98.09375,42.28125,47.40625,-85.9375,20.5625,-46.875
1695813686457,-0.5449219,0.091796875,-0.21679688,-35.21875,37.59375,0.40625,0.0,0.0,0.0
1695813686507,-0.4404297,0.030273438,-0.08691406,-39.125,19.46875,-51.03125,0.0,0.0,0.0
1695813686530,-0.3828125,0.08496094,0.11425781,-61.78125,-24.0625,-73.5,0.0,0.0,0.0
1695813686578,-0.4404297,0.049804688,-0.17285156,-32.5625,-80.53125,-78.1875,0.0,0.0,0.0
1695813686603,-1.2851562,0.5566406,-0.9326172,-24.0625,-22.28125,-87.0625,0.0,0.0,0.0
1695813686653,-1.2929688,0.36621094,0.64453125,-325.28125,-121.59375,-6.59375,0.0,0.0,0.0
1695813686704,-1.9619141,-0.8183594,-1.2744141,-117.4375,-81.125,-115.5,0.0,0.0,0.0
1695813686728,-1.1875,0.19238281,0.44335938,39.40625,-22.15625,53.15625,0.0,0.0,0.0
1695813686779,-0.49609375,-0.48535156,0.15234375,-51.21875,-59.78125,-73.4375,0.0,0.0,0.0
1695813686805,-1.375,-0.31835938,0.2734375,-126.90625,-66.25,-52.5,0.0,0.0,0.0
1695813686857,-1.1767578,0.37890625,0.10253906,-62.9375,-27.125,-27.65625,0.0,0.0,0.0
1695813686905,-0.8232422,-0.043945312,0.16796875,-39.3125,-11.25,-50.5625,0.0,0.0,0.0
1695813686929,-1.1005859,-0.040039062,0.2265625,-36.625,-17.03125,-34.8125,-78.3125,-1.75,-17.0
1695813686979,-1.0097656,0.021484375,0.030273438,-79.25,-22.78125,-18.25,0.0,0.0,0.0
1695813687007,-1.0351562,-0.07324219,0.1015625,-72.59375,4.0,-16.0625,0.0,0.0,0.0
1695813687053,-1.0126953,0.021484375,0.18847656,-79.1875,-2.75,-14.0,0.0,0.0,0.0
1695813687104,-1.1835938,0.06542969,0.099609375,-60.5,-10.6875,-33.59375,0.0,0.0,0.0
1695813687129,-1.0449219,0.005859375,0.045898438,-38.71875,-22.46875,-44.5,0.0,0.0,0.0
1695813687179,-1.2841797,-0.16113281,0.0107421875,-40.96875,-30.84375,-56.40625,0.0,0.0,0.0
1695813687206,-1.3164062,-0.059570312,0.07128906,-59.65625,-13.8125,-29.96875,0.0,0.0,0.0
1695813687255,-1.1933594,-0.18847656,0.009765625,-42.5,25.9375,7.5,0.0,0.0,0.0
1695813687304,-1.2792969,-0.33007812,-0.30664062,-67.34375,68.46875,65.53125,0.0,0.0,0.0
1695813687329,-1.1660156,0.049804688,-9.765625E-4,-153.75,88.71875,144.5625,0.0,0.0,0.0
1695813687379,-1.4101562,-0.053710938,0.10546875,-58.4375,140.3125,173.375,0.0,0.0,0.0
1695813687430,-1.109375,-0.27929688,0.095703125,-78.75,110.46875,143.53125,-86.875,-13.1875,-28.6875
1695813687453,-1.0371094,-0.072265625,-0.038085938,-2.40625,122.40625,143.125,0.0,0.0,0.0
1695813687504,-0.95996094,0.20605469,-0.17773438,7.125,103.625,156.25,0.0,0.0,0.0
1695813687527,-0.7285156,0.0625,-0.018554688,49.3125,118.03125,135.71875,0.0,0.0,0.0
1695813687577,-0.42578125,0.037109375,-0.22167969,24.21875,74.5625,98.25,0.0,0.0,0.0
1695813687603,-0.43945312,0.0859375,-0.1953125,42.46875,46.96875,62.65625,0.0,0.0,0.0
1695813687654,-0.3828125,0.18945312,-0.21386719,57.65625,19.21875,24.75,0.0,0.0,0.0
1695813687704,-0.21679688,0.22851562,-0.31152344,17.5,-42.875,-30.34375,0.0,0.0,0.0
1695813687729,-0.41210938,0.10644531,-0.14941406,-43.34375,-102.3125,-53.46875,0.0,0.0,0.0
1695813687805,-0.8574219,0.58984375,-0.3701172,-112.6875,-128.3125,-92.84375,0.0,0.0,0.0
1695813687807,-2.0,0.91015625,-0.33691406,-98.34375,-120.875,-85.28125,0.0,0.0,0.0
1695813687854,-0.56152344,-0.19042969,-0.06933594,19.46875,-28.8125,-47.25,0.0,0.0,0.0
1695813687905,-0.8261719,-0.19824219,-0.22558594,25.5,-55.1875,-86.3125,0.0,0.0,0.0
1695813687929,-1.2519531,-0.2841797,-0.009765625,-43.90625,-68.375,-107.6875,-91.625,-15.875,-41.3125
1695813687979,-0.8701172,0.0048828125,-0.038085938,-109.15625,-74.28125,-84.125,0.0,0.0,0.0
1695813688005,-0.8769531,0.45996094,0.29589844,-57.8125,-50.0,-80.15625,0.0,0.0,0.0
1695813688054,-1.2275391,0.44433594,0.203125,24.59375,-13.875,-83.4375,0.0,0.0,0.0
1695813688105,-0.94433594,-0.025390625,0.115234375,65.84375,7.5625,-59.46875,0.0,0.0,0.0
1695813688129,-1.0537109,-0.34277344,-0.0068359375,41.5625,0.78125,-53.1875,0.0,0.0,0.0
1695813688180,-0.921875,-0.061523438,0.022460938,-20.71875,-9.46875,-49.6875,0.0,0.0,0.0
1695813688204,-1.1845703,0.103515625,0.20996094,-34.5,-22.84375,-40.1875,0.0,0.0,0.0
1695813688255,-1.1708984,0.111328125,0.06640625,6.40625,-29.25,-53.96875,0.0,0.0,0.0
1695813688304,-1.3359375,0.051757812,-0.076171875,19.8125,-21.375,-50.125,0.0,0.0,0.0
1695813688329,-1.2763672,-0.0087890625,-0.030273438,7.5,5.65625,-36.5,0.0,0.0,0.0
1695813688379,-1.2695312,-0.29785156,-0.16210938,-1.90625,25.0,28.90625,0.0,0.0,0.0
1695813688406,-1.1982422,-0.31933594,-0.38671875,-83.875,53.9375,85.375,-79.0625,-22.3125,-23.625
1695813688454,-1.2734375,0.3046875,-0.08886719,-50.90625,122.25,184.90625,0.0,0.0,0.0
1695813688503,-1.3398438,0.15722656,0.45996094,-79.4375,110.03125,175.8125,0.0,0.0,0.0
1695813688529,-1.0537109,-0.33691406,-0.09667969,11.03125,87.75,147.75,0.0,0.0,0.0
1695813688580,-0.94433594,-0.23925781,-0.24609375,74.6875,132.96875,138.90625,0.0,0.0,0.0
1695813688604,-0.9296875,0.17773438,-0.16308594,28.0625,93.375,155.25,0.0,0.0,0.0
1695813688655,-0.54003906,0.0068359375,-0.043945312,29.21875,106.78125,119.625,0.0,0.0,0.0
1695813688705,-0.41308594,0.19335938,-0.1953125,22.5,66.5625,86.40625,0.0,0.0,0.0
1695813688729,-0.328125,0.20800781,-0.2763672,52.53125,46.125,27.9375,0.0,0.0,0.0
1695813688780,-0.28222656,0.3232422,-0.22460938,56.8125,-7.78125,-34.6875,0.0,0.0,0.0
1695813688804,-0.26953125,0.119140625,-0.15917969,-7.09375,-92.96875,-52.75,0.0,0.0,0.0
1695813688854,-0.75390625,0.5966797,-0.87890625,-92.53125,-115.375,-95.71875,0.0,0.0,0.0
1695813688905,-2.0,0.4111328,-0.765625,-77.71875,-144.53125,-93.8125,0.0,0.0,0.0
1695813688929,0.057617188,-0.30859375,-0.0048828125,-17.21875,-89.8125,-68.3125,-103.625,-5.0625,-53.75
1695813688980,-0.9658203,-0.17480469,-0.15527344,23.375,-70.6875,-60.125,0.0,0.0,0.0
1695813689005,-1.4638672,0.20117188,-0.04296875,5.84375,-55.125,-89.0,0.0,0.0,0.0
1695813689054,-0.61035156,-0.2109375,-0.14355469,-38.71875,-45.71875,-68.6875,0.0,0.0,0.0
1695813689103,-0.9140625,0.2421875,0.047851562,-11.3125,-40.53125,-76.0625,0.0,0.0,0.0
1695813689128,-1.1289062,0.26171875,0.0859375,10.65625,-24.375,-84.25,0.0,0.0,0.0
1695813689178,-0.83691406,-0.017578125,0.024414062,37.9375,-14.78125,-62.875,0.0,0.0,0.0
1695813689203,-0.85058594,-0.11621094,0.02734375,18.0625,-24.78125,-54.34375,0.0,0.0,0.0
1695813689254,-0.9785156,-0.0029296875,-0.0068359375,-7.59375,-33.09375,-50.0,0.0,0.0,0.0
1695813689305,-0.90234375,0.14257812,0.036132812,-14.1875,-31.625,-44.03125,0.0,0.0,0.0
1695813689329,-1.2646484,0.017578125,0.06738281,-11.3125,-38.28125,-46.21875,0.0,0.0,0.0
1695813689379,-1.0712891,0.54589844,0.5048828,-103.21875,-43.09375,-41.8125,0.0,0.0,0.0
1695813689404,-1.2890625,-0.44921875,-0.23828125,48.8125,-34.125,-51.96875,0.0,0.0,0.0
1695813689455,-1.4628906,-0.453125,-0.043945312,-19.3125,-5.625,-34.875,-79.375,-24.875,-24.9375
1695813689505,-1.2832031,-0.18066406,-0.40625,-17.78125,27.5625,20.25,0.0,0.0,0.0
1695813689529,-1.1884766,0.16210938,-0.1953125,-52.3125,72.6875,110.875,0.0,0.0,0.0
1695813689579,-1.3935547,0.3623047,0.061523438,-3.6875,139.625,203.46875,0.0,0.0,0.0
1695813689605,-1.3222656,-0.07714844,0.14453125,-59.09375,109.96875,187.59375,0.0,0.0,0.0
1695813689655,-1.0068359,-0.2841797,0.11816406,2.5,80.4375,161.4375,0.0,0.0,0.0
1695813689705,-1.1074219,0.053710938,-0.19238281,139.4375,127.65625,156.65625,0.0,0.0,0.0
1695813689729,-0.859375,0.18847656,-0.20410156,59.1875,118.34375,157.53125,0.0,0.0,0.0
1695813689779,-0.37402344,-0.19042969,-0.06933594,12.0625,78.125,120.40625,0.0,0.0,0.0
1695813689805,-0.37695312,0.20605469,-0.16699219,15.0625,48.1875,84.28125,0.0,0.0,0.0
1695813689854,-0.3984375,0.20410156,-0.328125,43.3125,39.71875,36.0625,0.0,0.0,0.0
1695813689904,-0.26757812,0.16210938,-0.25976562,50.15625,6.46875,-1.0625,0.0,0.0,0.0
1695813689929,-0.1875,0.09667969,-0.39746094,-4.78125,-71.4375,-40.71875,-103.8125,15.3125,-64.125
1695813689982,-0.71972656,0.81347656,-0.3359375,-38.34375,-120.5625,-111.90625,0.0,0.0,0.0
1695813690004,-2.0,1.3232422,0.2890625,-134.78125,-166.28125,-67.71875,0.0,0.0,0.0
1695813690079,-0.17773438,-0.2861328,0.359375,101.0625,8.34375,-72.78125,0.0,0.0,0.0
1695813690104,-0.32128906,-0.21679688,-0.15625,-10.625,-118.90625,-84.78125,0.0,0.0,0.0
1695813690129,-2.0,-0.1640625,-0.095703125,-11.78125,-102.6875,-71.96875,0.0,0.0,0.0
1695813690178,-0.62597656,-0.068359375,-0.36132812,-37.75,-39.03125,-71.25,0.0,0.0,0.0
1695813690203,-0.67089844,-0.05859375,-0.0146484375,-45.84375,-52.6875,-86.875,0.0,0.0,0.0
1695813690253,-1.2236328,0.13574219,0.15820312,-34.3125,-41.6875,-88.6875,0.0,0.0,0.0
1695813690303,-0.9169922,0.26367188,0.08984375,3.28125,-13.9375,-69.84375,0.0,0.0,0.0
1695813690328,-0.76171875,0.15234375,0.1796875,29.71875,-11.6875,-76.96875,0.0,0.0,0.0
1695813690378,-0.9482422,-0.046875,0.041992188,23.53125,-29.125,-60.125,0.0,0.0,0.0
1695813690405,-0.9394531,0.026367188,-0.021484375,7.84375,-22.21875,-42.3125,0.0,0.0,0.0
1695813690455,-0.93359375,-0.060546875,0.0703125,-10.875,-22.96875,-37.375,-85.5,-25.3125,-25.4375
1695813690505,-1.1171875,-0.08691406,0.08984375,-8.0625,-29.5,-44.5625,0.0,0.0,0.0
1695813690529,-1.453125,-0.0078125,0.005859375,-15.09375,-49.46875,-55.0625,0.0,0.0,0.0
1695813690583,-1.6015625,0.016601562,0.18359375,12.4375,-15.875,-60.0625,0.0,0.0,0.0
1695813690604,-1.3681641,-0.3486328,-0.05859375,16.9375,7.6875,-25.71875,0.0,0.0,0.0
1695813690654,-1.1884766,0.06347656,-0.3515625,-16.1875,64.6875,50.71875,0.0,0.0,0.0
1695813690706,-1.2148438,0.3095703,-0.0078125,-107.0625,89.09375,147.5625,0.0,0.0,0.0
1695813690730,-1.5322266,0.19921875,0.19921875,-67.65625,106.375,188.34375,0.0,0.0,0.0
1695813690780,-1.1748047,-0.54589844,0.013671875,-38.90625,104.71875,174.46875,0.0,0.0,0.0
1695813690804,-0.93652344,-0.47265625,-0.18457031,63.34375,99.78125,160.09375,0.0,0.0,0.0
1695813690857,-0.9550781,0.2421875,-0.059570312,114.78125,146.03125,159.96875,0.0,0.0,0.0
1695813690929,-0.6699219,-0.00390625,0.00390625,0.15625,117.125,141.90625,-111.3125,2.75,-57.0625
1695813690932,-0.32714844,-0.11035156,-0.10058594,20.1875,98.6875,89.28125,0.0,0.0,0.0
1695813690980,-0.3779297,0.10253906,-0.28320312,39.21875,76.28125,60.46875,0.0,0.0,0.0
1695813691004,-0.26953125,0.23242188,-0.30078125,57.125,25.9375,-5.03125,0.0,0.0,0.0
1695813691079,-0.19042969,0.21679688,-0.14648438,-15.59375,-72.9375,-53.3125,0.0,0.0,0.0
1695813691106,-0.41503906,0.40527344,-0.19628906,-83.625,-131.25,-83.5,0.0,0.0,0.0
1695813691129,-2.0,1.3330078,1.0898438,-176.90625,-204.71875,-42.75,0.0,0.0,0.0
1695813691179,-0.2919922,-0.12988281,0.625,46.4375,-21.5,-47.4375,0.0,0.0,0.0
1695813691207,-0.79589844,-0.08300781,-0.25683594,-13.875,-114.15625,-56.0,0.0,0.0,0.0
1695813691254,-1.5800781,0.10449219,-0.03125,-15.625,-76.0,-81.375,0.0,0.0,0.0
1695813691304,-0.7607422,0.016601562,-0.31054688,-41.21875,-44.5625,-64.21875,0.0,0.0,0.0
1695813691329,-0.9111328,0.01171875,0.0146484375,-33.84375,-33.40625,-87.53125,0.0,0.0,0.0
1695813691378,-1.1835938,0.203125,0.17675781,-23.15625,-27.3125,-84.84375,0.0,0.0,0.0
1695813691403,-0.8535156,0.13671875,0.14257812,6.9375,-12.84375,-71.3125,0.0,0.0,0.0
1695813691454,-0.90625,-0.08203125,0.10546875,-8.3125,-17.90625,-78.125,-93.875,-27.125,-32.625
1695813691532,-0.92871094,-0.020507812,0.060546875,-16.96875,-21.3125,-65.75,0.0,0.0,0.0
1695813691535,-0.92871094,0.12011719,0.11425781,-22.84375,-21.4375,-46.53125,0.0,0.0,0.0
1695813691605,-0.87597656,-0.017578125,0.21386719,-24.5625,-15.03125,-44.15625,0.0,0.0,0.0
1695813691607,-0.96972656,-0.08105469,0.17480469,-26.375,-24.5,-41.46875,0.0,0.0,0.0
1695813691654,-1.3544922,-0.20898438,-0.017578125,-25.96875,-31.75,-46.28125,0.0,0.0,0.0
1695813691705,-1.2929688,-0.13476562,-0.015625,-55.4375,-30.40625,-43.71875,0.0,0.0,0.0
1695813691729,-1.5947266,-0.024414062,0.18945312,-57.03125,-24.4375,-52.09375,0.0,0.0,0.0
1695813691779,-1.4169922,-0.08984375,-0.041992188,-18.8125,14.28125,-10.75,0.0,0.0,0.0
1695813691805,-1.1113281,-0.1875,-0.39453125,-39.03125,59.0625,42.03125,0.0,0.0,0.0
1695813691854,-0.9794922,0.064453125,-0.1640625,-152.34375,77.6875,123.65625,0.0,0.0,0.0
1695813691905,-1.125,0.06542969,0.1171875,-80.40625,100.5,166.71875,0.0,0.0,0.0
1695813691929,-1.1005859,-0.30371094,0.12402344,-50.6875,63.8125,139.4375,-96.875,-27.25,-44.625
1695813691980,-0.7714844,-0.23144531,0.14550781,78.34375,70.1875,116.0,0.0,0.0,0.0
1695813692005,-0.8984375,-0.1484375,-0.15625,-20.53125,62.4375,126.4375,0.0,0.0,0.0
1695813692054,-0.74316406,0.041992188,-0.048828125,-34.9375,45.75,111.9375,0.0,0.0,0.0
1695813692105,-0.5185547,-0.033203125,-0.16894531,-35.46875,18.34375,55.21875,0.0,0.0,0.0
1695813692129,-0.5957031,0.1171875,-0.28027344,36.3125,44.46875,7.6875,0.0,0.0,0.0
1695813692179,-0.484375,-0.20996094,-0.140625,-3.4375,11.09375,-29.125,0.0,0.0,0.0
1695813692204,-0.5126953,-0.24121094,-0.16503906,-69.71875,-20.40625,-53.40625,0.0,0.0,0.0
1695813692255,-0.7832031,0.28027344,-0.12695312,-42.875,-5.5625,-52.1875,0.0,0.0,0.0
1695813692304,-1.0244141,0.6347656,-0.11035156,-13.03125,-33.71875,-76.90625,0.0,0.0,0.0
1695813692329,-0.94628906,0.8720703,-0.09863281,-67.59375,-68.25,-56.90625,0.0,0.0,0.0
1695813692379,-1.1621094,0.5058594,-0.23144531,-66.90625,-84.3125,-35.40625,0.0,0.0,0.0
1695813692408,-1.1982422,0.5341797,0.21289062,4.75,-66.46875,-12.34375,0.0,0.0,0.0
1695813692454,-2.0,-0.50390625,-0.10449219,-17.15625,-72.21875,-40.90625,-99.125,-21.875,-52.25
1695813692504,-0.5283203,-0.9169922,-0.60546875,-38.96875,3.15625,54.1875,0.0,0.0,0.0
1695813692529,0.14648438,-1.1767578,0.5576172,-226.34375,-68.0625,-93.28125,0.0,0.0,0.0
1695813692579,-2.0,0.40722656,0.61328125,-143.4375,-104.9375,-77.96875,0.0,0.0,0.0
1695813692604,-0.6972656,0.27929688,0.13867188,-61.90625,-26.6875,5.46875,0.0,0.0,0.0
1695813692656,-0.91796875,-0.20410156,0.18359375,2.71875,-11.125,-43.53125,0.0,0.0,0.0
1695813692705,-0.99609375,-0.23828125,0.12402344,-63.4375,-19.71875,-23.28125,0.0,0.0,0.0
1695813692728,-0.9863281,0.024414062,0.22167969,-86.4375,-23.5625,-16.6875,0.0,0.0,0.0
1695813692779,-0.9785156,0.11328125,0.107421875,-88.40625,-17.84375,-10.75,0.0,0.0,0.0
1695813692804,-0.9873047,0.19824219,0.16699219,-60.875,-7.15625,-15.875,0.0,0.0,0.0
1695813692854,-0.95410156,-0.029296875,0.13769531,-38.59375,-6.65625,-19.90625,0.0,0.0,0.0
1695813692906,-1.0478516,-0.123046875,0.09472656,-27.0625,-12.84375,-31.09375,0.0,0.0,0.0
1695813692929,-1.0214844,-0.25195312,0.17285156,-41.6875,-35.0625,-45.4375,-95.5625,-26.5,-42.8125
1695813692978,-1.4082031,-0.37695312,0.20507812,-39.8125,-31.15625,-56.15625,0.0,0.0,0.0
1695813693003,-1.6005859,-0.07421875,0.11425781,-34.9375,-7.59375,-29.75,0.0,0.0,0.0
1695813693054,-1.4599609,-0.016601562,-0.026367188,-45.375,24.03125,15.71875,0.0,0.0,0.0
1695813693104,-1.1347656,-0.087890625,-0.07910156,-67.75,93.90625,60.46875,0.0,0.0,0.0
1695813693129,-1.3056641,-0.083984375,0.013671875,-93.53125,124.875,112.53125,0.0,0.0,0.0
1695813693178,-1.2333984,-0.013671875,-0.13085938,-91.875,108.6875,159.84375,0.0,0.0,0.0
1695813693203,-1.1083984,-0.31933594,0.20410156,-69.15625,56.1875,167.71875,0.0,0.0,0.0
1695813693256,-1.1669922,-0.12207031,0.12695312,43.75,100.09375,150.5625,0.0,0.0,0.0
1695813693306,-0.9189453,0.12011719,-0.24414062,48.875,106.25,148.375,0.0,0.0,0.0
1695813693329,-0.8701172,-0.026367188,-0.078125,0.84375,96.90625,151.96875,0.0,0.0,0.0
1695813693379,-0.69433594,-0.020507812,-0.09472656,4.0625,65.0,124.0,0.0,0.0,0.0
1695813693404,-0.5732422,0.16699219,-0.24511719,44.90625,71.59375,101.5,0.0,0.0,0.0
1695813693454,-0.4091797,0.20214844,-0.21484375,49.84375,42.65625,56.0,-100.0625,8.0,-92.3125
1695813693503,-0.44628906,0.064453125,-0.18847656,33.6875,16.15625,22.25,0.0,0.0,0.0
1695813693528,-0.36816406,0.20703125,-0.38183594,8.96875,-13.25,-6.1875,0.0,0.0,0.0
1695813693580,-0.4716797,0.32617188,-0.40429688,-18.03125,-52.25,-38.46875,0.0,0.0,0.0
1695813693604,-0.84765625,0.7548828,0.083984375,-38.15625,-69.90625,-80.875,0.0,0.0,0.0
1695813693654,-1.2685547,0.8173828,-0.328125,-99.0625,-129.65625,-98.96875,0.0,0.0,0.0
1695813693706,-2.0,0.38378906,-0.5390625,1.3125,-91.1875,-54.21875,0.0,0.0,0.0
1695813693729,-0.35839844,-0.43164062,-0.47070312,-33.65625,-95.40625,-81.875,0.0,0.0,0.0
1695813693778,-1.296875,-0.17382812,-0.2265625,-42.3125,-66.65625,-96.875,0.0,0.0,0.0
1695813693806,-1.2333984,0.16308594,0.040039062,-80.8125,-32.78125,-104.4375,0.0,0.0,0.0
1695813693881,-0.6376953,0.19335938,0.16894531,-43.40625,-29.375,-82.09375,0.0,0.0,0.0
1695813693908,-1.0078125,0.40722656,0.19824219,-10.34375,-39.5625,-68.8125,0.0,0.0,0.0
1695813693929,-1.0029297,0.25097656,0.08203125,18.125,-24.78125,-76.4375,-94.9375,-16.1875,-62.4375
1695813693979,-0.8261719,-0.016601562,0.01953125,26.96875,-23.4375,-67.34375,0.0,0.0,0.0
1695813694006,-0.94433594,-0.080078125,0.06542969,20.125,-23.75,-56.28125,0.0,0.0,0.0
1695813694055,-0.9580078,0.009765625,0.036132812,-14.125,-30.65625,-49.09375,0.0,0.0,0.0
1695813694105,-1.1835938,-0.07421875,0.0068359375,-16.0,-33.84375,-55.625,0.0,0.0,0.0
1695813694129,-1.3574219,0.047851562,0.07910156,0.59375,-32.5,-75.625,0.0,0.0,0.0
1695813694178,-1.3154297,-0.03125,-0.08984375,10.3125,-22.0625,-60.875,0.0,0.0,0.0
1695813694204,-1.4189453,0.0029296875,-0.024414062,2.5,-3.4375,-34.75,0.0,0.0,0.0
1695813694257,-1.2939453,-0.13671875,-0.26367188,7.25,46.3125,31.90625,0.0,0.0,0.0
1695813694303,-1.2363281,-0.19433594,-0.22753906,-102.625,94.21875,105.6875,0.0,0.0,0.0
1695813694330,-1.3701172,0.049804688,-0.296875,-20.53125,156.90625,181.625,0.0,0.0,0.0
1695813694380,-1.3535156,-0.21191406,0.34472656,-128.3125,136.65625,180.96875,0.0,0.0,0.0
1695813694405,-1.0527344,-0.33007812,-0.13085938,-31.5625,103.5625,153.4375,0.0,0.0,0.0
1695813694454,-1.109375,-0.022460938,-0.28222656,56.125,162.15625,151.53125,-92.5625,-3.4375,-77.125
1695813694504,-0.96777344,0.04296875,0.048828125,-4.46875,121.875,157.28125,0.0,0.0,0.0
1695813694529,-0.43945312,0.09667969,-0.14941406,20.0,131.875,104.59375,0.0,0.0,0.0
1695813694582,-0.16796875,0.01171875,-0.25683594,21.90625,86.96875,49.0,0.0,0.0,0.0
1695813694606,-0.18164062,0.109375,-0.2861328,48.25,48.03125,-14.3125,0.0,0.0,0.0
1695813694657,-0.13378906,0.19433594,-0.2421875,17.6875,-13.03125,-63.75,0.0,0.0,0.0
1695813694703,-0.3544922,0.32226562,-0.265625,-43.59375,-78.25,-78.625,0.0,0.0,0.0
1695813694729,-0.6923828,0.17675781,-0.69433594,-149.1875,-154.875,-94.4375,0.0,0.0,0.0
1695813694779,-2.0,1.2451172,0.49023438,-187.6875,-216.5625,-66.3125,0.0,0.0,0.0
1695813694805,-0.35546875,0.09667969,-0.0546875,1.9375,-50.4375,-54.6875,0.0,0.0,0.0
1695813694854,-0.7060547,-0.24316406,-0.17773438,-13.6875,-76.8125,-65.75,0.0,0.0,0.0
1695813694904,-1.5136719,-0.0029296875,-0.03125,-34.5625,-91.8125,-75.5625,0.0,0.0,0.0
1695813694930,-0.8388672,-0.064453125,-0.16015625,-77.03125,-54.59375,-61.65625,-97.625,-5.1875,-74.4375
1695813694979,-0.8154297,0.13671875,0.08984375,-89.96875,-69.59375,-69.65625,0.0,0.0,0.0
1695813695004,-1.2695312,0.35351562,0.25097656,-61.34375,-52.9375,-70.375,0.0,0.0,0.0
1695813695054,-0.8847656,0.015625,0.08496094,-10.5,-24.25,-57.6875,0.0,0.0,0.0
1695813695104,-0.8496094,-0.095703125,0.13769531,-26.75,-29.3125,-64.09375,0.0,0.0,0.0
1695813695128,-0.9042969,-0.0546875,0.16894531,-70.75,-45.0,-67.09375,0.0,0.0,0.0
1695813695181,-0.8886719,0.08984375,0.17089844,-67.8125,-51.90625,-51.90625,0.0,0.0,0.0
1695813695204,-0.97265625,-0.009765625,0.20605469,-36.40625,-38.78125,-54.21875,0.0,0.0,0.0
1695813695256,-0.9121094,-0.20898438,0.07128906,-44.6875,-43.71875,-52.03125,0.0,0.0,0.0
1695813695304,-1.0107422,0.09765625,0.16503906,-73.0,-56.46875,-42.6875,0.0,0.0,0.0
1695813695328,-1.0683594,0.3486328,0.16894531,-47.3125,-41.8125,-28.53125,0.0,0.0,0.0
1695813695405,-1.1152344,-0.043945312,0.021484375,-29.5,-14.0625,0.0,0.0,0.0,0.0
1695813695408,-1.3095703,0.04296875,-0.0087890625,-62.9375,15.5625,21.84375,0.0,0.0,0.0
1695813695455,-1.4257812,0.06640625,0.0029296875,-69.90625,94.96875,106.125,-94.8125,-8.5,-50.9375
1695813695532,-1.5888672,-0.47460938,-0.20507812,-65.8125,166.5,168.5,0.0,0.0,0.0
1695813695535,-1.3271484,-0.859375,0.029296875,-172.0625,134.375,155.1875,0.0,0.0,0.0
1695813695580,-1.3720703,-0.4404297,0.14160156,-139.78125,103.3125,170.09375,0.0,0.0,0.0
1695813695605,-1.3837891,0.35742188,-0.043945312,-43.65625,139.875,190.46875,0.0,0.0,0.0
1695813695655,-1.0527344,0.20898438,-0.0126953125,-17.78125,141.9375,175.53125,0.0,0.0,0.0
1695813695704,-0.6845703,-0.015625,-0.15625,37.9375,153.5625,120.46875,0.0,0.0,0.0
1695813695728,-0.5546875,0.0126953125,-0.17480469,38.0,122.53125,96.3125,0.0,0.0,0.0
1695813695778,-0.25976562,0.11230469,-0.15820312,47.21875,105.6875,42.28125,0.0,0.0,0.0
1695813695803,-0.21289062,0.3173828,-0.33789062,4.9375,43.25,-12.34375,0.0,0.0,0.0
1695813695854,-0.36523438,0.115234375,-0.4482422,-36.34375,-2.6875,-24.90625,0.0,0.0,0.0
1695813695878,-0.5097656,0.5097656,-0.3701172,-49.8125,-25.53125,-23.09375,0.0,0.0,0.0
1695813695929,-0.55371094,0.6669922,-0.4794922,-18.21875,-43.28125,-46.9375,-76.9375,33.1875,-85.6875
1695813695980,-0.47070312,0.41308594,-0.31640625,-31.03125,-94.9375,-96.6875,0.0,0.0,0.0
1695813696006,-1.7919922,0.39648438,-1.2978516,-43.21875,-45.90625,-64.90625,0.0,0.0,0.0
1695813696055,-1.2275391,-0.3154297,-0.66015625,-75.75,-69.03125,-69.46875,0.0,0.0,0.0
1695813696079,-0.49316406,0.0859375,-0.038085938,-76.4375,-103.96875,-89.96875,0.0,0.0,0.0
1695813696128,-1.3769531,0.076171875,-0.03515625,-68.0625,-111.40625,-87.46875,0.0,0.0,0.0
1695813696179,-1.2333984,0.41210938,-0.109375,25.1875,-36.03125,-57.6875,0.0,0.0,0.0
1695813696204,-0.50683594,-0.35351562,-0.10449219,-48.21875,-52.25,-71.71875,0.0,0.0,0.0
1695813696254,-0.9511719,0.11328125,0.051757812,-69.21875,-65.8125,-78.3125,0.0,0.0,0.0
1695813696278,-1.2304688,0.45507812,0.11230469,-24.0625,-32.71875,-57.3125,0.0,0.0,0.0
1695813696328,-0.81640625,0.17578125,0.0546875,8.53125,-3.5625,-63.96875,0.0,0.0,0.0
1695813696379,-0.93359375,-0.038085938,0.10058594,23.125,-15.625,-57.3125,0.0,0.0,0.0
1695813696404,-0.9892578,-0.059570312,-0.033203125,-11.78125,-29.4375,-49.03125,0.0,0.0,0.0
1695813696454,-0.890625,0.013671875,0.049804688,-24.4375,-15.75,-39.375,-90.875,10.0625,-52.125
1695813696481,-1.0351562,0.14160156,0.12695312,-22.46875,-26.6875,-43.65625,0.0,0.0,0.0
1695813696531,-1.1279297,-0.03125,0.060546875,-17.90625,-33.34375,-50.78125,0.0,0.0,0.0
1695813696580,-1.2558594,-0.044921875,0.045898438,-14.46875,-35.90625,-63.0,0.0,0.0,0.0
1695813696604,-1.4511719,-0.001953125,0.055664062,-6.25,-22.125,-66.125,0.0,0.0,0.0
1695813696654,-1.4638672,-0.0126953125,0.0029296875,-6.71875,10.78125,-33.03125,0.0,0.0,0.0
1695813696679,-1.2666016,-0.28320312,-0.3203125,0.34375,41.84375,26.28125,0.0,0.0,0.0
1695813696728,-1.1542969,-0.047851562,-0.2783203,-116.96875,87.6875,99.96875,0.0,0.0,0.0
1695813696778,-1.3271484,0.13671875,-0.068359375,-68.1875,114.65625,173.625,0.0,0.0,0.0
1695813696804,-1.1494141,-0.16015625,0.1171875,-104.8125,91.65625,175.28125,0.0,0.0,0.0
1695813696854,-0.9746094,-0.2685547,0.072265625,21.84375,80.78125,142.3125,0.0,0.0,0.0
1695813696878,-0.9667969,0.091796875,-0.390625,47.90625,119.375,131.5625,0.0,0.0,0.0
1695813696928,-0.9140625,0.1875,0.033203125,35.8125,100.8125,144.9375,-85.8125,22.25,-68.875
1695813696981,-0.5917969,-0.068359375,-0.107421875,27.03125,86.03125,112.34375,0.0,0.0,0.0
1695813697005,-0.3720703,0.10449219,-0.2607422,48.375,65.53125,83.0625,0.0,0.0,0.0
1695813697055,-0.4296875,0.14355469,-0.26367188,50.53125,33.4375,43.5625,0.0,0.0,0.0
1695813697081,-0.46972656,0.29882812,-0.234375,32.28125,-9.90625,5.40625,0.0,0.0,0.0
1695813697129,-0.34570312,0.20800781,-0.2783203,-4.71875,-61.78125,-24.375,0.0,0.0,0.0
1695813697179,-0.4892578,0.46875,-0.099609375,-15.21875,-88.53125,-73.625,0.0,0.0,0.0
1695813697204,-1.6308594,1.1259766,-0.33984375,-102.75,-125.5625,-44.8125,0.0,0.0,0.0
1695813697254,-1.5751953,0.33984375,-0.27539062,73.46875,-27.53125,-85.34375,0.0,0.0,0.0
1695813697279,-0.41796875,-0.234375,-0.4736328,-38.40625,-93.8125,-79.0,0.0,0.0,0.0
1695813697329,-1.6572266,-0.013671875,-0.0625,-27.125,-99.4375,-73.25,0.0,0.0,0.0
1695813697380,-1.0273438,0.123046875,-0.20996094,-19.1875,-39.3125,-76.1875,0.0,0.0,0.0
1695813697407,-0.6503906,-0.18261719,-0.048828125,-23.6875,-42.8125,-80.75,0.0,0.0,0.0
1695813697454,-1.0068359,0.17382812,0.09765625,-14.53125,-33.03125,-81.8125,-88.1875,12.8125,-58.5625
1695813697478,-0.984375,0.18164062,0.115234375,-0.4375,-27.96875,-73.625,0.0,0.0,0.0
1695813697529,-0.8886719,0.12597656,0.00390625,24.71875,-20.84375,-67.46875,0.0,0.0,0.0
1695813697582,-0.8886719,0.0,0.06933594,26.0,-16.75,-57.3125,0.0,0.0,0.0
1695813697604,-0.9042969,-0.046875,-0.026367188,12.125,-27.71875,-42.875,0.0,0.0,0.0
1695813697685,-0.91503906,-0.00390625,0.04296875,-12.15625,-32.96875,-36.5625,0.0,0.0,0.0
1695813697687,-1.21875,-0.01171875,0.047851562,-13.875,-33.03125,-48.125,0.0,0.0,0.0
1695813697730,-1.3105469,0.0087890625,0.0625,-0.375,-34.9375,-51.46875,0.0,0.0,0.0
1695813697780,-1.2597656,-0.11621094,0.10058594,2.0625,-29.875,-68.4375,0.0,0.0,0.0
1695813697804,-1.6455078,-0.2998047,0.045898438,-6.375,-14.3125,-52.25,0.0,0.0,0.0
1695813697854,-1.3876953,-0.19433594,-0.3671875,19.6875,41.0625,9.6875,0.0,0.0,0.0
1695813697878,-1.0712891,0.17089844,-0.2578125,-73.75,92.40625,87.5625,0.0,0.0,0.0
1695813697929,-1.2861328,0.29589844,0.03515625,-103.34375,74.8125,162.53125,-91.1875,3.0625,-50.9375
1695813697983,-1.3359375,-0.04296875,0.28222656,-97.0,70.90625,188.875,0.0,0.0,0.0
1695813698006,-0.9189453,-0.33496094,0.14160156,35.6875,94.15625,156.59375,0.0,0.0,0.0
1695813698056,-1.0185547,-0.18652344,-0.2783203,104.21875,111.0,140.125,0.0,0.0,0.0
1695813698079,-0.9160156,0.06347656,-0.091796875,64.5,105.75,158.5625,0.0,0.0,0.0
1695813698129,-0.5332031,-0.041992188,-0.005859375,11.03125,79.09375,133.96875,0.0,0.0,0.0
1695813698182,-0.38183594,-0.01171875,-0.1796875,25.9375,64.6875,96.34375,0.0,0.0,0.0
1695813698203,-0.49121094,0.24316406,-0.27148438,49.0,47.46875,67.25,0.0,0.0,0.0
1695813698254,-0.40820312,0.29003906,-0.24316406,50.28125,8.71875,9.5625,0.0,0.0,0.0
1695813698279,-0.33984375,0.16601562,-0.29492188,-13.125,-68.9375,-35.46875,0.0,0.0,0.0
1695813698330,-0.5761719,0.5185547,-0.072265625,-58.0625,-98.90625,-78.8125,0.0,0.0,0.0
1695813698381,-2.0,1.0693359,0.091796875,-109.34375,-167.25,-69.65625,0.0,0.0,0.0
1695813698404,-1.2373047,0.19335938,-0.024414062,67.84375,-21.5,-76.5,0.0,0.0,0.0
1695813698454,-0.3671875,-0.21289062,-0.1796875,-17.84375,-93.65625,-87.28125,-93.875,15.1875,-74.875
1695813698479,-1.5195312,0.028320312,-0.00390625,-25.59375,-95.28125,-69.28125,0.0,0.0,0.0
1695813698529,-1.1689453,0.21679688,-0.2421875,-24.5625,-52.3125,-71.5,0.0,0.0,0.0
1695813698579,-0.7285156,-0.049804688,-0.051757812,-21.75,-46.21875,-76.5625,0.0,0.0,0.0
1695813698604,-1.0253906,0.13183594,0.09472656,3.15625,-22.46875,-87.25,0.0,0.0,0.0
1695813698654,-0.9794922,0.13769531,0.13574219,20.6875,-13.6875,-70.21875,0.0,0.0,0.0
1695813698680,-0.9042969,0.07519531,0.060546875,40.28125,-6.78125,-67.03125,0.0,0.0,0.0
1695813698729,-0.8232422,-0.1171875,0.01171875,28.5625,-16.6875,-61.0625,0.0,0.0,0.0
1695813698779,-0.9941406,-0.005859375,0.040039062,-0.375,-29.6875,-46.9375,0.0,0.0,0.0
1695813698805,-0.9003906,0.0107421875,0.03515625,2.71875,-24.375,-37.25,0.0,0.0,0.0
1695813698855,-1.2109375,-0.030273438,0.12792969,-2.53125,-30.96875,-48.1875,0.0,0.0,0.0
1695813698879,-1.2128906,0.14453125,0.048828125,4.5,-33.15625,-54.34375,0.0,0.0,0.0
1695813698930,-1.5273438,0.072265625,0.17773438,10.96875,-19.5,-59.46875,-92.5625,-3.6875,-46.6875
1695813698979,-1.4443359,-0.3701172,-0.15722656,20.25,1.875,-11.0,0.0,0.0,0.0
1695813699005,-1.2695312,-0.19824219,-0.33984375,-3.125,56.5,38.875,0.0,0.0,0.0
1695813699053,-1.2353516,0.030273438,-0.17285156,-113.96875,83.90625,111.6875,0.0,0.0,0.0
1695813699078,-1.4042969,0.23828125,0.21191406,-84.65625,135.3125,178.625,0.0,0.0,0.0
1695813699128,-1.2070312,-0.3466797,0.28222656,-78.4375,58.8125,161.4375,0.0,0.0,0.0
1695813699205,-0.9716797,-0.24902344,-0.21582031,86.34375,113.5625,138.53125,0.0,0.0,0.0
1695813699207,-0.9580078,0.05078125,-0.30371094,41.71875,129.875,146.03125,0.0,0.0,0.0
1695813699254,-0.7626953,0.0029296875,0.03515625,8.59375,91.96875,140.3125,0.0,0.0,0.0
1695813699279,-0.4873047,-0.057617188,-0.01953125,22.125,105.5,105.5625,0.0,0.0,0.0
1695813699331,-0.36523438,0.119140625,-0.20410156,22.25,69.9375,70.3125,0.0,0.0,0.0
1695813699380,-0.390625,0.2529297,-0.14941406,36.3125,26.53125,22.8125,0.0,0.0,0.0
1695813699404,-0.23046875,0.37304688,-0.10546875,33.4375,-26.25,-34.875,0.0,0.0,0.0
1695813699454,-0.2890625,-0.17285156,-0.16894531,-99.1875,-148.40625,-99.8125,-92.125,32.4375,-81.9375
1695813699479,-1.4101562,0.39941406,-0.2421875,-14.84375,-137.84375,-113.40625,0.0,0.0,0.0
1695813699530,-1.9970703,0.8515625,-0.890625,-83.375,-116.78125,-58.4375,0.0,0.0,0.0
1695813699581,-0.12792969,-0.0146484375,-0.07324219,43.0,-77.03125,-85.40625,0.0,0.0,0.0
1695813699605,-1.3574219,-0.24609375,-9.765625E-4,39.71875,-68.4375,-92.4375,0.0,0.0,0.0
1695813699655,-1.0722656,0.08691406,-0.19824219,-35.65625,-53.84375,-75.875,0.0,0.0,0.0
1695813699680,-0.60839844,-0.05859375,0.059570312,-44.5,-69.59375,-76.375,0.0,0.0,0.0
1695813699733,-1.1572266,0.34570312,0.1640625,-0.1875,-43.59375,-78.5,0.0,0.0,0.0
1695813699779,-0.82910156,0.11230469,0.1484375,37.46875,-24.0,-74.71875,0.0,0.0,0.0
1695813699805,-0.9091797,-0.18164062,-0.0068359375,35.15625,-27.46875,-58.0,0.0,0.0,0.0
1695813699855,-0.93847656,-0.05859375,0.043945312,17.125,-15.15625,-47.375,0.0,0.0,0.0
1695813699878,-0.875,-0.08105469,0.02734375,-1.25,-21.625,-36.5625,0.0,0.0,0.0
1695813699928,-1.03125,-0.13671875,0.10644531,-26.1875,-21.625,-27.71875,-100.1875,-2.375,-50.1875
1695813699978,-1.2636719,-0.08105469,0.029296875,-17.34375,-19.90625,-44.9375,0.0,0.0,0.0
1695813700004,-1.1240234,-0.1015625,0.12109375,-22.15625,-32.5,-57.09375,0.0,0.0,0.0
1695813700055,-1.6875,-0.038085938,0.18261719,-14.0,-29.8125,-69.65625,0.0,0.0,0.0
1695813700080,-1.4365234,-0.21777344,-0.076171875,-3.3125,6.5,-25.28125,0.0,0.0,0.0
1695813700129,-1.2382812,-0.1015625,-0.3720703,-27.78125,72.875,31.90625,0.0,0.0,0.0
1695813700179,-1.2080078,0.31445312,-0.3095703,-45.84375,105.03125,126.625,0.0,0.0,0.0
1695813700210,-1.5458984,-0.19921875,0.08984375,-142.46875,70.25,176.0625,0.0,0.0,0.0
1695813700254,-1.1494141,-0.45898438,-0.03125,-74.34375,141.65625,160.5625,0.0,0.0,0.0
1695813700278,-0.87109375,-0.40039062,-0.09375,-40.3125,74.375,145.4375,0.0,0.0,0.0
1695813700330,-1.1757812,0.111328125,-0.38867188,36.125,129.125,165.8125,0.0,0.0,0.0
1695813700379,-0.7890625,0.12207031,0.0859375,18.84375,114.71875,145.84375,0.0,0.0,0.0
1695813700404,-0.4609375,-0.12792969,-0.038085938,35.5,124.3125,103.75,0.0,0.0,0.0
1695813700454,-0.4267578,0.048828125,-0.28027344,25.8125,92.40625,82.8125,-90.4375,30.9375,-82.375
1695813700481,-0.25683594,0.0146484375,-0.30078125,36.3125,68.40625,31.90625,0.0,0.0,0.0
1695813700530,-0.25585938,0.17285156,-0.20019531,23.3125,22.875,-15.8125,0.0,0.0,0.0
1695813700579,-0.37402344,0.34765625,-0.390625,-21.8125,-31.9375,-30.40625,0.0,0.0,0.0
1695813700604,-0.49804688,0.91796875,-0.29296875,-64.78125,-75.875,-44.3125,0.0,0.0,0.0
1695813700654,-0.8564453,0.546875,-0.59375,-58.1875,-164.375,-38.15625,0.0,0.0,0.0
1695813700679,-2.0,1.0664062,0.23046875,-52.625,-147.53125,-48.46875,0.0,0.0,0.0
1695813700729,-0.21679688,-0.50390625,-0.3515625,16.03125,-48.53125,-77.03125,0.0,0.0,0.0
1695813700779,-0.8076172,-0.4580078,-0.35839844,-56.96875,-83.8125,-96.625,0.0,0.0,0.0
1695813700804,-1.5693359,0.06738281,-0.045898438,-113.46875,-96.09375,-103.65625,0.0,0.0,0.0
1695813700853,-0.7783203,0.18164062,-0.076171875,-130.15625,-76.0,-100.25,0.0,0.0,0.0
1695813700878,-0.8515625,0.3125,0.064453125,-67.75,-59.34375,-82.71875,0.0,0.0,0.0
1695813700931,-1.03125,0.0146484375,0.16503906,-64.28125,-39.3125,-78.3125,-101.25,15.3125,-53.9375
1695813700981,-0.94628906,-0.015625,0.19628906,-67.8125,-50.5625,-72.15625,0.0,0.0,0.0
1695813701004,-0.87597656,0.030273438,0.2109375,-52.1875,-49.5,-64.53125,0.0,0.0,0.0
1695813701055,-1.0107422,0.09082031,0.26757812,-22.46875,-40.71875,-63.625,0.0,0.0,0.0
1695813701079,-0.8984375,-0.11230469,0.083984375,-37.5625,-34.1875,-55.75,0.0,0.0,0.0
1695813701130,-0.8671875,-0.15820312,0.16601562,-52.4375,-42.75,-41.9375,0.0,0.0,0.0
1695813701179,-0.9140625,-0.07519531,0.21191406,-57.09375,-47.4375,-41.9375,0.0,0.0,0.0
1695813701204,-0.8691406,-0.12890625,0.18359375,-50.3125,-65.625,-50.4375,0.0,0.0,0.0
1695813701254,-0.9941406,0.05078125,0.2607422,-47.5625,-64.21875,-61.59375,0.0,0.0,0.0
1695813701279,-1.1503906,0.028320312,-0.06738281,-9.78125,-48.59375,-48.78125,0.0,0.0,0.0
1695813701329,-1.1230469,0.07519531,0.091796875,-34.9375,-6.65625,-8.0625,0.0,0.0,0.0
1695813701379,-1.2763672,-0.0546875,-0.06640625,-50.3125,17.5625,23.375,0.0,0.0,0.0
1695813701403,-1.3496094,0.15917969,0.08984375,-70.28125,67.96875,97.15625,0.0,0.0,0.0
1695813701484,-1.3251953,-0.19238281,-0.09667969,-49.875,164.78125,157.5625,-105.875,-0.5625,-29.3125
1695813701487,-1.7304688,-0.95996094,0.080078125,-107.75,150.9375,170.46875,0.0,0.0,0.0
1695813701529,-1.1015625,-0.70703125,0.19335938,-129.96875,92.15625,176.375,0.0,0.0,0.0
1695813701578,-1.3779297,0.036132812,-0.16503906,-39.03125,108.625,178.15625,0.0,0.0,0.0
1695813701603,-1.2792969,0.30566406,0.024414062,-19.53125,136.9375,186.03125,0.0,0.0,0.0
1695813701653,-0.8046875,-0.061523438,-0.09472656,-16.4375,123.21875,131.34375,0.0,0.0,0.0
1695813701678,-0.73535156,0.0,-0.10839844,36.25,124.3125,125.65625,0.0,0.0,0.0
1695813701728,-0.41503906,0.12695312,-0.21386719,19.8125,103.0625,85.8125,0.0,0.0,0.0
1695813701779,-0.20605469,0.25683594,-0.18261719,21.21875,70.0,29.53125,0.0,0.0,0.0
1695813701805,-0.18554688,0.11230469,-0.36132812,-0.9375,32.875,-7.15625,0.0,0.0,0.0
1695813701855,-0.3017578,0.23242188,-0.3955078,-28.46875,-16.0625,-32.65625,0.0,0.0,0.0
1695813701878,-0.6591797,0.6064453,-0.36328125,-33.21875,-60.8125,-69.59375,0.0,0.0,0.0
1695813701931,-0.92089844,0.49023438,-0.50878906,-81.25,-82.78125,-115.75,-93.0,45.3125,-71.0
1695813702005,-2.0,1.4296875,0.7246094,-145.28125,-117.375,-52.09375,0.0,0.0,0.0
1695813702006,-0.20117188,-0.17285156,-0.047851562,18.71875,-15.28125,-75.5625,0.0,0.0,0.0
1695813702055,-0.74121094,-0.32910156,-0.13867188,-88.875,-99.8125,-96.9375,0.0,0.0,0.0
1695813702080,-1.671875,0.3466797,-0.032226562,-63.375,-105.59375,-93.21875,0.0,0.0,0.0
1695813702130,-0.7236328,0.040039062,-0.09667969,-50.75,-39.5,-82.84375,0.0,0.0,0.0
1695813702180,-0.77734375,-0.11816406,0.0625,-54.28125,-54.53125,-94.75,0.0,0.0,0.0
1695813702206,-1.1777344,0.24902344,0.1171875,-26.25,-34.625,-81.5,0.0,0.0,0.0
1695813702253,-0.9033203,0.1328125,0.048828125,7.3125,-7.53125,-67.21875,0.0,0.0,0.0
1695813702279,-0.8847656,-0.061523438,0.078125,8.15625,-9.28125,-68.25,0.0,0.0,0.0
1695813702329,-1.0009766,-0.048828125,0.03125,-14.1875,-21.125,-50.75,0.0,0.0,0.0
1695813702378,-0.93652344,0.068359375,0.06933594,-33.21875,-31.75,-40.59375,0.0,0.0,0.0
1695813702404,-1.2744141,0.029296875,0.12988281,-32.90625,-33.15625,-55.0625,0.0,0.0,0.0
1695813702456,-1.2851562,0.12988281,0.07324219,-18.9375,-41.46875,-54.34375,-103.375,12.0625,-28.25
1695813702480,-1.3701172,-0.030273438,-0.17675781,6.625,-32.65625,-70.75,0.0,0.0,0.0
1695813702530,-1.3359375,0.043945312,-0.036132812,-5.8125,-0.5,-56.0,0.0,0.0,0.0
1695813702606,-1.2636719,0.009765625,-0.16894531,14.5,33.5625,26.46875,0.0,0.0,0.0
1695813702609,-1.2236328,-0.36328125,-0.4580078,-70.5,66.4375,112.09375,0.0,0.0,0.0
1695813702655,-1.3554688,0.17773438,-0.041992188,-111.71875,129.8125,183.03125,0.0,0.0,0.0
1695813702681,-1.1845703,0.0625,0.38085938,-132.28125,58.875,181.75,0.0,0.0,0.0
1695813702731,-1.0087891,-0.43164062,-0.23828125,69.125,105.40625,141.15625,0.0,0.0,0.0
1695813702781,-0.8925781,-0.10253906,-0.16796875,76.875,118.21875,133.40625,0.0,0.0,0.0
1695813702804,-1.0605469,0.18261719,-0.043945312,-20.875,83.53125,153.78125,0.0,0.0,0.0
1695813702852,-0.8154297,0.140625,-0.045898438,22.625,88.90625,118.9375,0.0,0.0,0.0
1695813702878,-0.36914062,0.080078125,-0.23046875,60.90625,84.34375,92.9375,0.0,0.0,0.0
1695813702930,0.0703125,0.09472656,-0.3310547,86.46875,43.3125,2.78125,-91.375,49.0625,-60.8125
1695813703006,-0.0390625,0.21386719,-0.11425781,32.53125,-53.375,-73.25,0.0,0.0,0.0
1695813703008,-0.30859375,0.22558594,0.020507812,-163.84375,-188.6875,-126.53125,0.0,0.0,0.0
1695813703056,-2.0,0.3388672,0.16699219,-141.5,-209.0,-121.15625,0.0,0.0,0.0
1695813703079,-0.8339844,0.32421875,-0.23828125,21.03125,-49.5,-34.6875,0.0,0.0,0.0
1695813703128,-0.4296875,-0.18457031,-0.1640625,13.53125,-68.9375,-85.28125,0.0,0.0,0.0
1695813703181,-1.3007812,-0.024414062,0.057617188,0.28125,-70.28125,-91.875,0.0,0.0,0.0
1695813703206,-1.125,0.16503906,0.0048828125,-10.21875,-24.5625,-69.0,0.0,0.0,0.0
1695813703253,-0.82128906,0.07519531,0.055664062,7.96875,-33.9375,-67.34375,0.0,0.0,0.0
1695813703279,-1.1845703,0.18457031,0.16308594,3.28125,-35.28125,-75.40625,0.0,0.0,0.0
1695813703328,-1.0917969,0.017578125,0.046875,33.0625,-19.0,-52.03125,0.0,0.0,0.0
1695813703379,-0.9433594,-0.234375,0.029296875,21.96875,-12.59375,-44.9375,0.0,0.0,0.0
1695813703404,-0.98046875,-0.11621094,0.06738281,-11.125,-22.0625,-52.125,0.0,0.0,0.0
1695813703454,-0.84765625,0.018554688,0.22070312,-42.4375,-30.34375,-43.28125,-92.125,14.125,-29.4375
1695813703482,-0.9580078,-0.005859375,0.14941406,-23.9375,-37.5,-41.03125,0.0,0.0,0.0
1695813703530,-0.9628906,0.07519531,0.01171875,-19.71875,-40.46875,-45.84375,0.0,0.0,0.0
1695813703579,-0.9863281,-0.09277344,-0.13574219,-42.875,-46.84375,-61.0625,0.0,0.0,0.0
1695813703607,-1.3867188,-0.18164062,0.3046875,-70.625,-31.625,-53.125,0.0,0.0,0.0
1695813703653,-1.1953125,-0.40820312,-0.25585938,3.40625,15.96875,-8.5625,0.0,0.0,0.0
1695813703679,-1.2333984,0.009765625,0.038085938,-103.28125,33.0,59.8125,0.0,0.0,0.0
1695813703728,-1.1972656,0.049804688,-0.0146484375,-136.625,76.09375,110.46875,0.0,0.0,0.0
1695813703779,-1.203125,-0.10644531,-0.08984375,-57.09375,79.5625,142.25,0.0,0.0,0.0
1695813703803,-1.2001953,-0.49902344,-0.016601562,-68.9375,68.96875,138.96875,0.0,0.0,0.0
1695813703854,-0.83984375,-0.49121094,0.060546875,5.125,66.875,94.21875,0.0,0.0,0.0
1695813703881,-0.98339844,-0.25390625,-0.328125,-101.8125,55.59375,115.15625,0.0,0.0,0.0
1695813703928,-0.7451172,-0.09277344,0.059570312,-94.8125,50.875,90.9375,-89.5625,13.375,-32.3125
1695813703979,-0.5751953,0.022460938,-0.10058594,-77.96875,36.71875,54.3125,0.0,0.0,0.0
1695813704004,-0.56640625,0.17382812,-0.16015625,-2.9375,58.46875,23.78125,0.0,0.0,0.0
1695813704054,-0.44433594,-0.0390625,-0.13574219,-13.3125,47.65625,-21.875,0.0,0.0,0.0
1695813704082,-0.4921875,-0.16601562,-0.1171875,-45.59375,0.78125,-55.0,0.0,0.0,0.0
1695813704132,-0.71972656,0.12792969,-0.060546875,-17.34375,-24.625,-77.09375,0.0,0.0,0.0
1695813704178,-1.1552734,0.6777344,-0.2734375,-43.15625,-65.625,-101.46875,0.0,0.0,0.0
1695813704203,-1.2011719,0.89160156,0.034179688,-221.625,-107.6875,-20.46875,0.0,0.0,0.0
1695813704253,-0.6845703,0.4482422,0.23828125,-89.96875,-145.53125,3.34375,0.0,0.0,0.0
1695813704279,-2.0,-0.8154297,-0.4169922,117.1875,17.75,-98.71875,0.0,0.0,0.0
1695813704329,-0.27246094,-1.0927734,-0.4892578,-31.5,21.96875,68.40625,0.0,0.0,0.0
1695813704379,-0.23046875,-0.63964844,0.8251953,-243.53125,-60.4375,-100.96875,0.0,0.0,0.0
1695813704404,-2.0,0.7001953,0.5214844,-126.90625,-89.4375,-37.1875,0.0,0.0,0.0
1695813704453,-0.79589844,0.22460938,0.051757812,-43.84375,1.09375,6.6875,-80.5625,-7.625,-13.25
1695813704482,-0.8808594,-0.5332031,0.13964844,23.84375,-6.59375,-49.21875,0.0,0.0,0.0
1695813704528,-0.92578125,-0.21972656,0.16113281,-37.75,-18.8125,-40.0625,0.0,0.0,0.0
1695813704578,-0.99316406,-0.103515625,0.07324219,-76.4375,-29.125,-28.03125,0.0,0.0,0.0
1695813704603,-0.95996094,0.05859375,0.14160156,-67.75,-16.3125,-29.5,0.0,0.0,0.0
1695813704653,-0.8330078,0.07324219,0.21777344,-49.5,-20.71875,-32.4375,0.0,0.0,0.0
1695813704679,-0.99609375,0.07421875,0.17285156,-17.15625,-11.96875,-30.40625,0.0,0.0,0.0
1695813704729,-1.0087891,-0.16308594,0.15136719,1.5,-21.0,-41.59375,0.0,0.0,0.0
1695813704779,-1.2119141,-0.2919922,0.10058594,-14.3125,-30.53125,-43.84375,0.0,0.0,0.0
1695813704804,-1.4111328,-0.37402344,0.11230469,-42.4375,-32.0,-42.5,0.0,0.0,0.0
1695813704854,-1.4208984,0.13574219,0.12695312,-38.59375,20.3125,-4.90625,0.0,0.0,0.0
1695813704878,-1.4111328,-0.10449219,-0.13476562,-31.21875,53.34375,58.625,0.0,0.0,0.0
1695813704928,-1.2998047,-0.091796875,0.0048828125,-91.875,115.53125,105.15625,-76.1875,-20.1875,-12.8125
1695813704980,-1.1904297,-0.16796875,0.020507812,-114.21875,118.6875,142.0,0.0,0.0,0.0
1695813705004,-1.1660156,-0.29589844,0.00390625,-108.28125,90.875,167.34375,0.0,0.0,0.0
1695813705055,-1.0458984,-0.2578125,0.099609375,-38.71875,70.78125,146.46875,0.0,0.0,0.0
1695813705079,-1.1523438,0.1015625,-0.12597656,0.65625,97.59375,156.0,0.0,0.0,0.0
1695813705130,-0.921875,0.13378906,-0.13378906,3.46875,104.84375,156.71875,0.0,0.0,0.0
1695813705180,-0.68847656,0.0087890625,-0.09375,15.96875,92.09375,130.0,0.0,0.0,0.0
1695813705204,-0.6035156,0.055664062,-0.16699219,41.125,87.625,100.8125,0.0,0.0,0.0
1695813705279,-0.4716797,0.13574219,-0.14648438,46.96875,60.71875,67.0625,0.0,0.0,0.0
1695813705281,-0.2861328,0.16796875,-0.20410156,32.15625,24.59375,24.71875,0.0,0.0,0.0
1695813705329,-0.46777344,0.29492188,-0.20214844,11.09375,-23.21875,-6.96875,0.0,0.0,0.0
1695813705379,-0.45703125,0.3095703,-0.2841797,4.375,-63.125,-41.875,0.0,0.0,0.0
1695813705405,-0.5078125,0.49902344,-0.020507812,-35.90625,-103.03125,-95.65625,0.0,0.0,0.0
1695813705455,-1.9941406,1.1279297,0.05859375,-121.0,-172.0,-84.5,-107.375,-1.9375,-50.9375
1695813705479,-1.2880859,0.12207031,-0.18261719,53.6875,-18.875,-73.0,0.0,0.0,0.0
1695813705530,-0.41210938,-0.18261719,-0.44140625,-17.28125,-59.78125,-87.34375,0.0,0.0,0.0
1695813705580,-1.7441406,-0.12109375,-0.034179688,-10.28125,-61.34375,-103.21875,0.0,0.0,0.0
1695813705605,-0.9296875,0.10253906,-0.03515625,-51.09375,-26.4375,-87.1875,0.0,0.0,0.0
1695813705654,-0.71191406,0.02734375,0.07519531,-39.75,-53.0625,-82.40625,0.0,0.0,0.0
1695813705679,-1.1816406,0.203125,0.13574219,-12.09375,-35.78125,-84.25,0.0,0.0,0.0
1695813705730,-0.90722656,0.0087890625,0.095703125,26.34375,-6.71875,-79.53125,0.0,0.0,0.0
1695813705779,-0.85253906,-0.125,0.04296875,26.59375,-3.75,-69.78125,0.0,0.0,0.0
1695813705804,-0.9423828,-0.0078125,0.10058594,-5.5625,-15.53125,-43.15625,0.0,0.0,0.0
1695813705855,-0.94433594,0.07910156,0.08886719,-19.5,-29.625,-38.09375,0.0,0.0,0.0
1695813705879,-1.0703125,0.0087890625,0.06347656,-14.96875,-27.46875,-47.0,0.0,0.0,0.0
1695813705929,-1.2714844,-9.765625E-4,0.109375,1.9375,-35.28125,-57.21875,-80.6875,-26.8125,-20.0
1695813705979,-1.4189453,-0.23144531,0.052734375,15.90625,-28.65625,-70.4375,0.0,0.0,0.0
1695813706004,-1.5078125,-0.22558594,-0.076171875,16.65625,5.0625,-38.90625,0.0,0.0,0.0
1695813706055,-1.2519531,-0.12109375,-0.2890625,-4.71875,40.75,28.5,0.0,0.0,0.0
1695813706080,-1.1767578,0.099609375,-0.18164062,-119.28125,87.21875,108.3125,0.0,0.0,0.0
1695813706129,-1.4033203,0.21289062,0.036132812,-92.0625,98.375,199.09375,0.0,0.0,0.0
1695813706181,-1.2294922,-0.02734375,0.1484375,-96.8125,84.09375,190.59375,0.0,0.0,0.0
1695813706205,-1.0068359,-0.4326172,-0.15234375,34.09375,66.625,164.09375,0.0,0.0,0.0
1695813706254,-1.0195312,0.109375,-0.10546875,147.4375,129.75,152.28125,0.0,0.0,0.0
1695813706279,-0.89746094,-0.1484375,0.024414062,15.96875,103.3125,168.4375,0.0,0.0,0.0
1695813706329,-0.3828125,-0.05078125,-0.07714844,-5.875,85.0625,117.84375,0.0,0.0,0.0
1695813706379,-0.3701172,0.21191406,-0.31933594,36.84375,73.21875,85.875,0.0,0.0,0.0
1695813706404,-0.37304688,0.29589844,-0.21289062,59.0,52.09375,13.40625,0.0,0.0,0.0
1695813706456,-0.1640625,0.1796875,-0.125,5.28125,-20.59375,-37.90625,-108.625,9.0625,-59.75
1695813706479,-0.3046875,0.24316406,-0.2705078,-18.875,-80.9375,-63.90625,0.0,0.0,0.0
1695813706529,-1.0185547,0.9941406,-1.3359375,-40.46875,-78.625,-85.78125,0.0,0.0,0.0
1695813706606,-1.9853516,0.45410156,-0.63183594,-6.59375,-126.0625,-120.1875,0.0,0.0,0.0
1695813706609,-0.18945312,-0.17578125,-0.10546875,-7.78125,-91.03125,-79.65625,0.0,0.0,0.0
1695813706654,-1.2666016,-0.025390625,-0.17089844,-1.3125,-89.625,-69.03125,0.0,0.0,0.0
1695813706679,-1.3037109,0.15625,-0.10253906,-7.78125,-61.59375,-95.90625,0.0,0.0,0.0
1695813706731,-0.58984375,-0.10449219,-0.032226562,-21.5,-48.21875,-89.5,0.0,0.0,0.0
1695813706754,-0.9628906,0.20214844,0.09863281,6.28125,-43.53125,-83.875,0.0,0.0,0.0
1695813706804,-1.0615234,0.18261719,0.078125,25.0,-25.90625,-81.5625,0.0,0.0,0.0
1695813706856,-0.85058594,0.025390625,0.024414062,48.75,-15.21875,-69.21875,0.0,0.0,0.0
1695813706879,-0.78808594,-0.0703125,0.018554688,30.25,-18.8125,-55.1875,0.0,0.0,0.0
1695813706928,-0.94628906,0.029296875,0.10058594,2.59375,-32.125,-44.28125,-89.375,-26.8125,-24.8125
1695813706954,-0.85253906,-9.765625E-4,0.06640625,-0.75,-26.03125,-34.125,0.0,0.0,0.0
1695813707003,-1.2773438,-0.08984375,0.11035156,-15.28125,-30.90625,-38.90625,0.0,0.0,0.0
1695813707055,-1.1884766,0.13574219,0.099609375,1.625,-34.25,-52.75,0.0,0.0,0.0
1695813707080,-1.5244141,-0.095703125,0.17480469,10.3125,-30.71875,-63.96875,0.0,0.0,0.0
1695813707129,-1.6103516,-0.41796875,-0.15136719,14.625,9.5,-25.96875,0.0,0.0,0.0
1695813707154,-1.2041016,0.1015625,-0.38867188,-19.78125,52.90625,42.53125,0.0,0.0,0.0
1695813707205,-1.1503906,0.27929688,-0.048828125,-84.65625,78.65625,127.90625,0.0,0.0,0.0
1695813707254,-1.5244141,0.28125,0.15039062,-51.40625,126.5,198.09375,0.0,0.0,0.0
1695813707280,-1.2314453,-0.27929688,0.3388672,-27.96875,66.40625,190.53125,0.0,0.0,0.0
1695813707330,-0.8535156,-0.5234375,-0.2783203,92.5,109.65625,148.78125,0.0,0.0,0.0
1695813707355,-0.9433594,-0.09472656,-0.20410156,72.125,117.28125,151.15625,0.0,0.0,0.0
1695813707404,-0.7128906,0.0068359375,0.0126953125,-4.15625,76.875,153.71875,0.0,0.0,0.0
1695813707453,-0.421875,0.045898438,-0.051757812,8.03125,79.875,105.09375,-113.125,2.0,-52.5625
1695813707480,-0.43652344,0.1875,-0.21679688,36.4375,56.125,67.375,0.0,0.0,0.0
1695813707529,-0.42382812,0.16601562,-0.21972656,82.6875,34.96875,9.8125,0.0,0.0,0.0
1695813707553,-0.21191406,0.15527344,-0.25976562,39.65625,-42.25,-54.59375,0.0,0.0,0.0
1695813707604,-0.2607422,0.19140625,0.12695312,-82.53125,-136.90625,-118.78125,0.0,0.0,0.0
1695813707654,-2.0,0.71875,1.2226562,-172.8125,-201.3125,-89.8125,0.0,0.0,0.0
1695813707684,-0.5800781,0.25878906,-0.045898438,57.25,-13.1875,-70.09375,0.0,0.0,0.0
1695813707730,-0.3515625,0.005859375,-0.15234375,18.34375,-70.75,-89.25,0.0,0.0,0.0
1695813707754,-2.0,-0.16699219,-0.030273438,25.875,-77.03125,-89.5625,0.0,0.0,0.0
1695813707804,-0.7421875,0.013671875,-0.18359375,-23.34375,-39.75,-77.09375,0.0,0.0,0.0
1695813707853,-0.6738281,-0.056640625,0.048828125,-1.34375,-45.90625,-78.625,0.0,0.0,0.0
1695813707879,-1.1835938,0.14550781,0.15039062,14.8125,-36.8125,-89.96875,0.0,0.0,0.0
1695813707929,-0.8222656,0.01171875,0.09277344,28.3125,-16.5625,-74.34375,-93.125,-20.9375,-29.1875
1695813707954,-0.8066406,-0.064453125,0.041992188,34.03125,-21.6875,-60.6875,0.0,0.0,0.0
1695813708005,-0.9296875,-0.0859375,0.064453125,7.4375,-22.34375,-51.53125,0.0,0.0,0.0
1695813708055,-0.89160156,-0.07714844,0.09765625,-18.21875,-28.09375,-43.65625,0.0,0.0,0.0
1695813708081,-1.1787109,0.02734375,0.064453125,-29.875,-36.6875,-51.59375,0.0,0.0,0.0
1695813708129,-1.3662109,0.028320312,0.0625,4.375,-22.0625,-57.03125,0.0,0.0,0.0
1695813708155,-1.2929688,-0.0078125,0.033203125,18.0625,-6.84375,-48.78125,0.0,0.0,0.0
1695813708203,-1.5927734,-0.27441406,-0.0078125,1.3125,13.65625,-25.40625,0.0,0.0,0.0
1695813708253,-1.2705078,-0.061523438,-0.43359375,-20.15625,45.40625,38.125,0.0,0.0,0.0
1695813708282,-1.296875,0.37695312,0.041015625,-91.4375,77.25,118.15625,0.0,0.0,0.0
1695813708330,-1.5009766,0.11035156,0.13964844,-49.9375,80.96875,185.78125,0.0,0.0,0.0
1695813708354,-1.2949219,-0.4375,0.1015625,-32.1875,85.0625,176.8125,0.0,0.0,0.0
1695813708404,-0.9658203,-0.5126953,-0.16113281,65.34375,83.0,149.28125,0.0,0.0,0.0
1695813708455,-0.9003906,-0.059570312,-0.29492188,64.4375,125.34375,145.625,-103.9375,-15.5625,-42.375
1695813708483,-0.7216797,0.026367188,0.10058594,-24.5,75.53125,148.65625,0.0,0.0,0.0
1695813708529,-0.5703125,-0.040039062,-9.765625E-4,6.6875,90.3125,111.8125,0.0,0.0,0.0
1695813708555,-0.42578125,0.18554688,-0.16015625,46.6875,81.90625,82.875,0.0,0.0,0.0
1695813708604,-0.21484375,0.109375,-0.18261719,52.84375,48.15625,15.71875,0.0,0.0,0.0
1695813708653,-0.296875,0.14355469,-0.22851562,14.75,-23.34375,-37.96875,0.0,0.0,0.0
1695813708677,-0.37402344,0.13769531,-0.22460938,-49.15625,-101.03125,-85.71875,0.0,0.0,0.0
1695813708729,-1.7675781,1.8232422,0.64746094,-219.3125,-131.65625,-48.96875,0.0,0.0,0.0
1695813708753,-1.6103516,0.52441406,0.19335938,51.8125,-24.0625,-92.53125,0.0,0.0,0.0
1695813708805,-0.4501953,-0.12207031,-0.46875,-24.96875,-84.375,-83.28125,0.0,0.0,0.0
1695813708854,-1.7539062,-0.09375,-0.049804688,-5.03125,-71.25,-80.8125,0.0,0.0,0.0
1695813708879,-0.9316406,0.030273438,-0.17089844,-59.34375,-36.21875,-92.1875,0.0,0.0,0.0
1695813708931,-0.7529297,-0.068359375,0.040039062,-36.03125,-49.15625,-86.9375,-102.875,-19.1875,-37.125
1695813708958,-1.1728516,0.25,0.17675781,-13.6875,-37.78125,-88.625,0.0,0.0,0.0
1695813709017,-0.74902344,0.025390625,0.11230469,-11.625,-26.3125,-83.75,0.0,0.0,0.0
1695813709081,-0.85839844,0.0146484375,0.13574219,7.96875,-27.59375,-74.90625,0.0,0.0,0.0
1695813709086,-0.8876953,0.0087890625,0.043945312,12.5625,-24.6875,-55.375,0.0,0.0,0.0
1695813709130,-0.9121094,0.036132812,0.015625,-2.40625,-24.1875,-37.0625,0.0,0.0,0.0
1695813709154,-0.9003906,0.021484375,0.037109375,-17.40625,-27.71875,-21.6875,0.0,0.0,0.0
1695813709204,-0.99902344,-0.036132812,0.083984375,-16.625,-19.4375,-21.5625,0.0,0.0,0.0
1695813709254,-1.1542969,-0.13574219,0.099609375,-5.03125,-28.40625,-37.4375,0.0,0.0,0.0
1695813709278,-1.3349609,-0.29003906,0.109375,-13.03125,-43.03125,-64.03125,0.0,0.0,0.0
1695813709329,-1.6962891,-0.1015625,0.140625,-25.15625,-27.71875,-68.1875,0.0,0.0,0.0
1695813709353,-1.5078125,-0.23339844,-0.034179688,-18.09375,-14.96875,-43.40625,0.0,0.0,0.0
1695813709404,-1.1337891,-0.087890625,-0.25683594,-36.15625,47.03125,9.6875,0.0,0.0,0.0
1695813709454,-1.0839844,0.35546875,0.087890625,-74.0625,72.375,103.75,-87.0,-36.125,-26.4375
1695813709479,-1.1669922,0.23925781,0.18652344,-89.375,44.53125,173.5625,0.0,0.0,0.0
1695813709531,-1.3007812,-0.29101562,0.08105469,-18.4375,16.59375,171.5,0.0,0.0,0.0
1695813709554,-0.87402344,-0.9013672,-0.032226562,128.34375,75.3125,133.90625,0.0,0.0,0.0
1695813709603,-0.7363281,-0.4794922,-0.31152344,85.5,141.34375,101.71875,0.0,0.0,0.0
1695813709653,-0.91015625,-0.18554688,-0.0107421875,-113.46875,86.59375,89.65625,0.0,0.0,0.0
1695813709678,-0.57128906,-0.20996094,0.02734375,-168.34375,47.03125,46.25,0.0,0.0,0.0
1695813709728,-0.546875,0.051757812,-0.10058594,-61.34375,72.0,24.46875,0.0,0.0,0.0
1695813709753,-0.55371094,0.037109375,-0.059570312,-77.71875,37.59375,-9.59375,0.0,0.0,0.0
1695813709803,-0.46484375,-0.17871094,-0.0087890625,-102.625,-5.21875,-56.59375,0.0,0.0,0.0
1695813709853,-0.59277344,0.17675781,-0.09375,18.71875,-16.1875,-97.625,0.0,0.0,0.0
1695813709879,-1.4150391,1.2216797,-0.14648438,-11.3125,-53.375,-89.8125,0.0,0.0,0.0
1695813709929,-1.4814453,1.0537109,-0.33496094,-222.25,-98.09375,4.0625,-102.125,-17.9375,-49.6875
1695813709953,-1.7089844,0.018554688,0.10546875,63.46875,-57.09375,45.53125,0.0,0.0,0.0
1695813710003,-0.40429688,-1.3642578,-0.5253906,107.96875,14.625,-10.8125,0.0,0.0,0.0
1695813710054,-0.90234375,-1.046875,0.25390625,-236.59375,-94.375,-110.84375,0.0,0.0,0.0
1695813710080,-1.375,0.4951172,0.36132812,-179.53125,-70.375,-62.75,0.0,0.0,0.0
1695813710129,-0.9511719,0.54296875,0.5546875,-88.5625,-32.4375,-22.90625,0.0,0.0,0.0
1695813710154,-1.0185547,0.20117188,0.20214844,4.0625,-21.6875,-47.3125,0.0,0.0,0.0
1695813710206,-0.99121094,-0.30078125,0.0146484375,-28.65625,-8.875,-33.84375,0.0,0.0,0.0
1695813710267,-0.85058594,-0.2939453,0.09277344,-77.78125,-25.34375,-27.34375,0.0,0.0,0.0
1695813710278,-1.078125,0.25976562,0.25683594,-69.84375,-10.5,-30.40625,0.0,0.0,0.0
1695813710328,-0.86816406,0.078125,0.11816406,-39.875,-12.34375,-9.125,0.0,0.0,0.0
1695813710353,-1.0283203,-0.0234375,0.17578125,-44.09375,-12.40625,-13.25,0.0,0.0,0.0
1695813710404,-0.9785156,-0.07324219,0.06640625,-34.375,-14.40625,-28.34375,0.0,0.0,0.0
1695813710453,-1.2324219,-0.17285156,0.09277344,-44.21875,-23.8125,-50.0,-97.375,-26.5,-40.875
1695813710479,-1.2431641,-0.35839844,0.0859375,-58.65625,-24.375,-66.96875,0.0,0.0,0.0
1695813710531,-1.5429688,0.15625,0.4111328,-48.71875,-9.46875,-59.90625,0.0,0.0,0.0
1695813710554,-1.734375,-0.28222656,-0.11328125,-9.15625,8.78125,-14.53125,0.0,0.0,0.0
1695813710605,-1.1982422,0.01171875,-0.18164062,-56.34375,96.84375,66.28125,0.0,0.0,0.0
1695813710655,-1.2978516,0.07324219,0.17382812,-121.34375,136.75,139.875,0.0,0.0,0.0
1695813710680,-1.3144531,-0.26171875,-0.19824219,-108.71875,89.09375,156.84375,0.0,0.0,0.0
1695813710730,-1.1308594,-0.4140625,-0.025390625,-70.15625,118.03125,162.8125,0.0,0.0,0.0
1695813710754,-1.0,-0.16699219,0.0546875,-24.625,118.625,152.6875,0.0,0.0,0.0
1695813710803,-0.9628906,0.06542969,-0.14453125,-19.53125,116.5625,150.8125,0.0,0.0,0.0
1695813710853,-0.7285156,0.12988281,0.026367188,0.0,104.15625,141.65625,0.0,0.0,0.0
1695813710878,-0.45507812,-0.109375,-0.14941406,33.625,92.34375,111.5,0.0,0.0,0.0
1695813710929,-0.45507812,0.14550781,-0.18554688,49.71875,66.75,79.21875,-98.6875,7.0625,-85.25
1695813710953,-0.48632812,0.16113281,-0.22753906,47.21875,28.96875,42.46875,0.0,0.0,0.0
1695813711002,-0.24023438,0.140625,-0.42089844,-5.875,-19.5,-12.40625,0.0,0.0,0.0
1695813711053,-0.31347656,0.3310547,-0.21679688,-46.15625,-75.625,-59.59375,0.0,0.0,0.0
1695813711082,-0.6123047,0.15820312,-0.30859375,-58.59375,-105.53125,-122.03125,0.0,0.0,0.0
1695813711131,-2.0,1.0478516,0.82714844,-108.28125,-160.34375,-90.28125,0.0,0.0,0.0
1695813711154,-0.26171875,-0.22558594,-0.140625,-13.6875,-24.1875,-65.5,0.0,0.0,0.0
1695813711205,-0.55566406,-0.11425781,-0.1953125,-24.84375,-87.78125,-84.90625,0.0,0.0,0.0
1695813711254,-2.0,0.13183594,0.111328125,8.40625,-77.34375,-99.125,0.0,0.0,0.0
1695813711278,-0.6591797,-0.13378906,-0.06738281,2.1875,-9.15625,-86.0,0.0,0.0,0.0
1695813711355,-0.6699219,-0.115234375,0.11230469,0.21875,-42.0,-92.25,0.0,0.0,0.0
1695813711358,-1.2158203,0.23730469,0.11230469,13.53125,-44.9375,-88.28125,0.0,0.0,0.0
1695813711408,-0.8173828,0.05078125,-0.00390625,44.90625,-16.375,-67.9375,0.0,0.0,0.0
1695813711454,-0.89941406,-0.12207031,0.009765625,46.3125,-13.5,-56.96875,-96.4375,-18.4375,-58.6875
1695813711478,-0.828125,-0.18359375,-0.021484375,5.1875,-22.84375,-36.34375,0.0,0.0,0.0
1695813711528,-0.9951172,-0.09667969,0.055664062,-41.75,-30.03125,-36.34375,0.0,0.0,0.0
1695813711553,-1.2177734,0.10839844,0.051757812,-33.78125,-31.6875,-45.71875,0.0,0.0,0.0
1695813711606,-1.3017578,0.0078125,0.07910156,12.8125,-30.65625,-56.90625,0.0,0.0,0.0
1695813711655,-1.5078125,0.025390625,0.11621094,32.40625,-22.21875,-78.3125,0.0,0.0,0.0
1695813711682,-1.4511719,-0.328125,-0.11035156,34.71875,-9.71875,-22.34375,0.0,0.0,0.0
1695813711728,-1.1835938,-0.14648438,-0.3798828,-12.21875,42.65625,39.96875,0.0,0.0,0.0
1695813711753,-1.2255859,-0.01953125,-0.15332031,-91.625,93.75,106.5625,0.0,0.0,0.0
1695813711803,-1.2548828,0.022460938,0.0029296875,-99.0,109.53125,161.0625,0.0,0.0,0.0
1695813711853,-1.1542969,-0.37695312,0.013671875,-94.125,99.09375,156.46875,0.0,0.0,0.0
1695813711878,-0.9189453,-0.32617188,-0.07519531,-10.09375,107.78125,141.53125,0.0,0.0,0.0
1695813711928,-0.9238281,-0.12695312,-0.34570312,-0.6875,108.375,142.25,-95.25,-7.9375,-74.875
1695813711952,-0.8027344,0.24707031,0.047851562,6.6875,93.4375,145.8125,0.0,0.0,0.0
1695813712002,-0.56640625,-0.053710938,-0.025390625,3.71875,95.25,116.125,0.0,0.0,0.0
1695813712053,-0.3984375,0.091796875,-0.22851562,15.71875,68.34375,84.34375,0.0,0.0,0.0
1695813712079,-0.37402344,0.11328125,-0.29003906,33.4375,33.5625,46.125,0.0,0.0,0.0
1695813712128,-0.3330078,0.20996094,-0.18945312,33.625,-9.78125,1.625,0.0,0.0,0.0
1695813712153,-0.31835938,0.3408203,-0.27929688,-18.625,-83.8125,-52.75,0.0,0.0,0.0
1695813712203,-0.6875,0.7861328,-0.29296875,-136.625,-133.0625,-85.53125,0.0,0.0,0.0
1695813712253,-2.0,0.71875,-0.25976562,-55.9375,-125.6875,-70.4375,0.0,0.0,0.0
1695813712281,0.328125,-0.34375,-0.14648438,-19.65625,-93.28125,-50.3125,0.0,0.0,0.0
1695813712330,-0.95410156,-0.30566406,-0.20507812,-22.59375,-87.53125,-63.375,0.0,0.0,0.0
1695813712353,-1.4404297,0.1171875,-0.03125,-80.65625,-76.625,-90.59375,0.0,0.0,0.0
1695813712404,-0.6425781,0.14160156,0.0068359375,-63.375,-52.5625,-64.65625,0.0,0.0,0.0
1695813712454,-1.0703125,0.13476562,0.14257812,-39.25,-49.8125,-72.84375,-99.75,-8.0625,-67.125
1695813712482,-1.0273438,0.09667969,0.052734375,-34.375,-48.0,-67.21875,0.0,0.0,0.0
1695813712529,-0.7519531,0.078125,0.11035156,-15.46875,-49.28125,-63.5,0.0,0.0,0.0
1695813712554,-0.9873047,-0.0029296875,0.16503906,-3.125,-47.625,-67.46875,0.0,0.0,0.0
1695813712603,-0.84375,-0.0859375,-0.028320312,-45.96875,-50.96875,-67.9375,0.0,0.0,0.0
1695813712654,-0.96972656,-0.115234375,0.103515625,-62.9375,-49.75,-63.0,0.0,0.0,0.0
1695813712680,-0.9628906,0.033203125,0.15332031,-50.96875,-30.28125,-58.5,0.0,0.0,0.0
1695813712729,-0.7919922,-0.10546875,0.17382812,-56.71875,-39.375,-49.15625,0.0,0.0,0.0
1695813712754,-1.0615234,0.059570312,0.21484375,-78.9375,-48.59375,-34.0,0.0,0.0,0.0
1695813712804,-0.92089844,0.19335938,0.07910156,-58.90625,-36.15625,-3.96875,0.0,0.0,0.0
1695813712880,-1.1230469,0.22265625,0.23730469,-42.3125,-11.5625,8.46875,0.0,0.0,0.0
1695813712882,-1.3876953,0.18261719,0.0126953125,-5.625,11.09375,28.3125,0.0,0.0,0.0
1695813712929,-1.5029297,-0.02734375,-0.12207031,-11.625,98.5,109.1875,-94.8125,-14.9375,-50.4375
1695813712953,-1.5859375,-0.6738281,-0.30078125,-78.3125,195.84375,148.0625,0.0,0.0,0.0
1695813713003,-1.3144531,-1.1455078,-0.080078125,-210.78125,158.5625,119.75,0.0,0.0,0.0
1695813713053,-1.1445312,-0.50097656,0.12207031,-235.90625,90.3125,152.8125,0.0,0.0,0.0
1695813713079,-1.3837891,0.2841797,0.14941406,-132.8125,113.09375,171.0,0.0,0.0,0.0
1695813713130,-1.2568359,0.7089844,0.026367188,8.34375,149.46875,174.90625,0.0,0.0,0.0
1695813713153,-0.6191406,0.1171875,-0.10839844,83.78125,199.5625,105.875,0.0,0.0,0.0
1695813713203,-0.3828125,-0.25683594,-0.26367188,57.78125,143.125,52.71875,0.0,0.0,0.0
1695813713285,-0.23828125,-0.09863281,-0.23535156,8.71875,113.09375,47.53125,0.0,0.0,0.0
1695813713288,-0.15332031,0.30371094,-0.32910156,-44.375,52.34375,29.21875,0.0,0.0,0.0
1695813713328,-0.35351562,0.61621094,-0.51464844,-81.0,19.46875,3.71875,0.0,0.0,0.0
1695813713353,-0.49023438,0.6191406,-0.49316406,-28.40625,20.6875,-13.4375,0.0,0.0,0.0
1695813713403,-0.47070312,0.58203125,-0.55859375,12.3125,-9.53125,-21.75,0.0,0.0,0.0
1695813713455,-0.48828125,0.56152344,-0.64746094,27.09375,-30.84375,-44.03125,-73.5,30.9375,-85.875
1695813713482,-0.9121094,0.66015625,-1.1289062,15.90625,-45.5,-58.78125,0.0,0.0,0.0
1695813713529,-1.9824219,0.65234375,-0.15722656,-44.8125,-23.8125,16.34375,0.0,0.0,0.0
1695813713554,0.22460938,-0.3828125,-0.421875,6.625,-54.75,-118.53125,0.0,0.0,0.0
1695813713605,-1.0087891,-0.17773438,-0.0048828125,-145.84375,-129.03125,-77.65625,0.0,0.0,0.0
1695813713679,-2.0,0.5673828,-0.13769531,-115.5625,-126.25,-102.0625,0.0,0.0,0.0
1695813713681,-0.70214844,0.10253906,-0.14160156,-58.0625,-79.46875,-98.09375,0.0,0.0,0.0
1695813713728,-0.9511719,0.07519531,-0.07421875,-32.90625,-70.625,-97.4375,0.0,0.0,0.0
1695813713753,-1.0380859,0.13378906,0.0048828125,-30.46875,-55.375,-83.5625,0.0,0.0,0.0
1695813713804,-0.7871094,-0.032226562,0.032226562,-60.3125,-58.5625,-77.78125,0.0,0.0,0.0
1695813713853,-0.9609375,0.18945312,0.13183594,-37.75,-40.65625,-82.53125,0.0,0.0,0.0
1695813713878,-1.0478516,0.23535156,0.17480469,-11.0625,-21.5625,-68.1875,0.0,0.0,0.0
1695813713930,-0.8251953,0.033203125,-0.028320312,2.84375,-22.53125,-54.21875,-95.125,12.0625,-58.5625
1695813713954,-0.94921875,-0.0146484375,0.053710938,-11.25,-24.96875,-50.0625,0.0,0.0,0.0
1695813714004,-0.9482422,-0.13183594,0.005859375,-22.40625,-15.34375,-47.3125,0.0,0.0,0.0
1695813714055,-0.9423828,0.05078125,0.119140625,-37.96875,-24.25,-42.8125,0.0,0.0,0.0
1695813714079,-1.1455078,0.109375,-0.00390625,-23.875,-33.15625,-45.0625,0.0,0.0,0.0
1695813714129,-1.3515625,-0.01171875,0.23632812,-11.96875,-30.03125,-63.625,0.0,0.0,0.0
1695813714153,-1.5097656,-0.3671875,0.20214844,-7.40625,-24.1875,-68.25,0.0,0.0,0.0
1695813714205,-1.6044922,-0.41503906,-0.046875,-18.5625,0.84375,-26.6875,0.0,0.0,0.0
1695813714257,-1.1904297,0.041992188,-0.39746094,-38.21875,37.71875,39.53125,0.0,0.0,0.0
1695813714278,-1.0976562,0.296875,-0.055664062,-66.3125,68.90625,104.46875,0.0,0.0,0.0
1695813714329,-1.4345703,0.15527344,0.19140625,-72.03125,81.15625,171.3125,0.0,0.0,0.0
1695813714353,-1.0859375,-0.20605469,0.15429688,-52.125,96.78125,166.0,0.0,0.0,0.0
1695813714404,-0.9199219,-0.6464844,-0.44433594,57.25,71.8125,122.90625,0.0,0.0,0.0
1695813714453,-1.0195312,0.030273438,0.05078125,117.125,119.96875,155.1875,-91.625,20.5625,-65.875
1695813714479,-0.8232422,-0.10449219,-0.030273438,-27.90625,86.15625,146.53125,0.0,0.0,0.0
1695813714531,-0.5810547,0.0087890625,-0.0126953125,-7.03125,78.15625,104.15625,0.0,0.0,0.0
1695813714555,-0.50878906,0.11035156,-0.21386719,56.625,88.1875,94.15625,0.0,0.0,0.0
1695813714603,-0.41015625,0.11328125,-0.17382812,54.71875,63.03125,46.4375,0.0,0.0,0.0
1695813714654,-0.3388672,0.27539062,-0.057617188,37.28125,-6.1875,-15.8125,0.0,0.0,0.0
1695813714679,-0.30078125,0.22460938,-0.095703125,-40.0,-110.125,-73.9375,0.0,0.0,0.0
1695813714736,-1.1367188,1.3105469,-0.02734375,-142.28125,-188.25,-91.375,0.0,0.0,0.0
1695813714754,-2.0,0.953125,0.032226562,46.125,-110.96875,-72.65625,0.0,0.0,0.0
1695813714803,-0.234375,-0.20410156,-0.43652344,23.71875,-67.46875,-76.8125,0.0,0.0,0.0
1695813714852,-1.2871094,-0.40234375,-0.15527344,8.21875,-50.3125,-89.8125,0.0,0.0,0.0
1695813714879,-1.2119141,0.032226562,-0.07714844,-60.9375,-38.09375,-92.78125,0.0,0.0,0.0
1695813714928,-0.73046875,0.08105469,0.10253906,-57.09375,-41.34375,-68.8125,-95.25,17.75,-62.4375
1695813714953,-1.0839844,0.38671875,0.19628906,-15.59375,-35.0,-80.8125,0.0,0.0,0.0
1695813715003,-0.86816406,0.076171875,0.095703125,21.65625,-11.375,-73.75,0.0,0.0,0.0
1695813715053,-0.93652344,-0.07324219,0.059570312,33.0,-9.59375,-55.9375,0.0,0.0,0.0
1695813715079,-0.7675781,-0.13183594,0.030273438,6.875,-14.0625,-54.75,0.0,0.0,0.0
1695813715155,-1.0429688,-0.041015625,-0.001953125,-26.0625,-20.53125,-47.25,0.0,0.0,0.0
1695813715158,-1.2128906,0.15820312,0.13085938,-20.21875,-31.21875,-41.21875,0.0,0.0,0.0
1695813715205,-1.1484375,-0.043945312,0.040039062,11.09375,-21.375,-49.8125,0.0,0.0,0.0
1695813715254,-1.3642578,-0.20800781,0.043945312,3.03125,-20.34375,-60.3125,0.0,0.0,0.0
1695813715280,-1.5175781,-0.068359375,0.040039062,-2.21875,-7.53125,-40.71875,0.0,0.0,0.0
1695813715329,-1.3925781,-0.33007812,-0.26660156,6.03125,11.15625,10.71875,0.0,0.0,0.0
1695813715357,-1.1113281,0.049804688,-0.2548828,-71.78125,64.1875,92.21875,0.0,0.0,0.0
1695813715404,-1.4462891,0.4921875,-0.1875,-80.75,119.90625,182.1875,0.0,0.0,0.0
1695813715454,-1.4667969,-0.20605469,0.10839844,-98.59375,110.6875,189.8125,-93.875,13.6875,-56.625
1695813715481,-0.9472656,-0.6982422,0.13964844,12.625,108.5625,165.5625,0.0,0.0,0.0
1695813715530,-1.0722656,0.328125,-0.20996094,86.71875,127.3125,177.0625,0.0,0.0,0.0
1695813715554,-0.8066406,-0.052734375,0.16503906,2.25,115.34375,175.59375,0.0,0.0,0.0
1695813715604,-0.34472656,9.765625E-4,-0.083984375,24.15625,89.34375,120.15625,0.0,0.0,0.0
1695813715656,-0.28320312,0.125,-0.21972656,49.53125,59.3125,76.09375,0.0,0.0,0.0
1695813715679,-0.15527344,0.14257812,-0.2939453,67.96875,22.125,2.65625,0.0,0.0,0.0
1695813715729,-0.13183594,0.11621094,-0.16601562,32.28125,-70.8125,-70.03125,0.0,0.0,0.0
1695813715754,-0.3623047,0.30078125,-0.30566406,-88.21875,-158.875,-112.0625,0.0,0.0,0.0
1695813715807,-2.0,0.15917969,-0.07519531,-150.59375,-229.3125,-54.40625,0.0,0.0,0.0
1695813715855,-0.19140625,0.013671875,-0.1328125,38.25,-43.71875,-70.4375,0.0,0.0,0.0
1695813715880,-0.52734375,-0.0234375,-0.20507812,42.28125,-66.40625,-84.78125,0.0,0.0,0.0
1695813715929,-1.9208984,0.1328125,0.11230469,49.25,-68.4375,-95.40625,-94.375,24.3125,-66.5
1695813715954,-0.5341797,-0.09765625,-0.17285156,-40.59375,-48.125,-76.5,0.0,0.0,0.0
1695813716006,-0.79785156,0.1640625,0.032226562,-10.34375,-49.5625,-77.78125,0.0,0.0,0.0
1695813716059,-1.2177734,0.2998047,0.16992188,10.40625,-28.65625,-84.1875,0.0,0.0,0.0
1695813716080,-0.79003906,0.015625,0.048828125,49.78125,-17.34375,-67.71875,0.0,0.0,0.0
1695813716129,-0.9394531,-0.119140625,0.01953125,33.84375,-17.78125,-65.6875,0.0,0.0,0.0
1695813716154,-0.90234375,0.0234375,0.07421875,6.8125,-20.28125,-57.09375,0.0,0.0,0.0
1695813716204,-1.0419922,-0.07128906,0.03515625,-11.90625,-32.65625,-38.84375,0.0,0.0,0.0
1695813716254,-1.1259766,-0.0107421875,0.15039062,-6.53125,-32.0625,-54.46875,0.0,0.0,0.0
1695813716279,-1.2431641,-0.11035156,0.064453125,21.21875,-26.125,-62.8125,0.0,0.0,0.0
1695813716330,-1.4033203,-0.021484375,0.026367188,-1.71875,-14.71875,-56.78125,0.0,0.0,0.0
1695813716354,-1.3623047,-0.07324219,-0.022460938,-4.90625,7.75,-7.53125,0.0,0.0,0.0
1695813716407,-1.2158203,-0.2529297,-0.28515625,-20.78125,46.6875,55.90625,0.0,0.0,0.0
1695813716454,-1.2421875,0.015625,-0.1875,-127.03125,75.65625,143.78125,-94.8125,7.375,-53.0
1695813716480,-1.3613281,0.3251953,0.22167969,-106.53125,125.84375,200.65625,0.0,0.0,0.0
1695813716555,-1.1523438,-0.35351562,0.048828125,-29.625,84.15625,166.96875,0.0,0.0,0.0
1695813716557,-0.9794922,-0.2939453,-0.16992188,58.6875,104.46875,148.1875,0.0,0.0,0.0
1695813716605,-0.96875,0.0126953125,-0.17578125,25.125,112.65625,156.84375,0.0,0.0,0.0
1695813716683,-0.75097656,0.13183594,0.00390625,9.03125,73.84375,142.3125,0.0,0.0,0.0
1695813716685,-0.52734375,0.1015625,-0.14941406,21.96875,75.96875,109.0625,0.0,0.0,0.0
1695813716730,-0.3857422,0.18945312,-0.18261719,46.6875,62.90625,68.28125,0.0,0.0,0.0
1695813716756,-0.2998047,0.18554688,-0.32714844,39.34375,21.15625,8.03125,0.0,0.0,0.0
1695813716805,-0.2734375,0.1796875,-0.24316406,16.9375,-40.3125,-33.53125,0.0,0.0,0.0
1695813716854,-0.35351562,0.26171875,-0.15234375,-28.09375,-99.0625,-81.5625,0.0,0.0,0.0
1695813716879,-1.0566406,1.0429688,-1.1123047,-117.5625,-137.21875,-123.5625,0.0,0.0,0.0
1695813716928,-2.0,0.8359375,-0.25585938,5.28125,-83.8125,-82.40625,-88.9375,27.625,-69.625
1695813716953,0.26660156,-0.42285156,-0.3486328,-14.0,-88.28125,-81.4375,0.0,0.0,0.0
1695813717006,-1.0205078,-0.16894531,-0.10546875,-38.65625,-86.5625,-81.3125,0.0,0.0,0.0
1695813717055,-1.6972656,0.58496094,0.07714844,-20.09375,-35.84375,-94.4375,0.0,0.0,0.0
1695813717078,-0.42578125,-0.10253906,-0.013671875,-16.375,-34.25,-75.5625,0.0,0.0,0.0
1695813717129,-0.89941406,0.1640625,0.125,0.84375,-36.03125,-84.625,0.0,0.0,0.0
1695813717154,-1.1191406,0.234375,0.09765625,13.53125,-27.84375,-77.40625,0.0,0.0,0.0
1695813717215,-0.8496094,-0.016601562,0.025390625,44.71875,-13.03125,-59.90625,0.0,0.0,0.0
1695813717257,-0.8828125,-0.13769531,0.043945312,24.40625,-22.0,-54.9375,0.0,0.0,0.0
1695813717279,-0.94140625,-0.07910156,0.076171875,0.34375,-27.90625,-47.0625,0.0,0.0,0.0
1695813717328,-0.9199219,0.030273438,0.048828125,-13.8125,-29.9375,-36.09375,0.0,0.0,0.0
1695813717354,-1.1738281,-0.08203125,0.12597656,-14.84375,-33.65625,-38.03125,0.0,0.0,0.0
1695813717404,-1.3330078,0.001953125,0.03125,3.46875,-40.65625,-56.59375,0.0,0.0,0.0
1695813717457,-1.5625,-0.125,-0.049804688,-3.1875,-22.0,-46.59375,-95.5625,6.0625,-47.0
1695813717480,-1.6337891,-0.15429688,-0.020507812,-19.5,17.25,-17.40625,0.0,0.0,0.0
1695813717529,-1.1162109,-0.0068359375,-0.31640625,-6.5,53.28125,49.0,0.0,0.0,0.0
1695813717553,-1.1533203,0.07324219,-0.11425781,-71.125,100.4375,134.6875,0.0,0.0,0.0
1695813717606,-1.4853516,0.18457031,0.18554688,-60.3125,102.59375,182.34375,0.0,0.0,0.0
1695813717655,-1.1777344,-0.2783203,0.24023438,-23.40625,89.84375,165.15625,0.0,0.0,0.0
1695813717679,-1.0380859,-0.3671875,-0.123046875,19.625,91.40625,148.53125,0.0,0.0,0.0
1695813717729,-0.9589844,-0.17578125,-0.33984375,56.6875,116.6875,152.03125,0.0,0.0,0.0
1695813717754,-0.8857422,0.16015625,0.02734375,18.40625,97.15625,155.625,0.0,0.0,0.0
1695813717804,-0.5078125,-0.048828125,-0.09667969,-7.21875,97.75,114.84375,0.0,0.0,0.0
1695813717855,-0.41308594,0.14355469,-0.16210938,23.53125,66.9375,76.21875,0.0,0.0,0.0
1695813717879,-0.21972656,0.09082031,-0.2919922,37.875,47.46875,20.125,0.0,0.0,0.0
1695813717930,-0.21191406,0.21679688,-0.140625,28.90625,-0.8125,-18.625,-80.25,37.375,-76.5625
1695813717954,-0.31933594,0.13769531,-0.23925781,-1.59375,-48.59375,-66.71875,0.0,0.0,0.0
1695813718005,-0.67578125,0.60058594,-0.08691406,-72.15625,-88.40625,-106.71875,0.0,0.0,0.0
1695813718029,-2.0,1.3886719,-0.10839844,-204.0,-208.15625,-57.375,0.0,0.0,0.0
1695813718080,-0.95703125,0.046875,-0.21972656,86.28125,15.3125,-58.125,0.0,0.0,0.0
1695813718130,-0.18066406,-0.20117188,-0.4892578,-17.78125,-86.125,-81.0,0.0,0.0,0.0
1695813718154,-2.0,-0.45214844,-0.14160156,-35.46875,-80.03125,-100.125,0.0,0.0,0.0
1695813718204,-0.79785156,0.20214844,-0.17578125,-86.1875,-51.15625,-68.875,0.0,0.0,0.0
1695813718229,-0.72265625,0.20410156,0.08203125,-59.40625,-55.375,-81.25,0.0,0.0,0.0
1695813718279,-1.2685547,0.234375,0.19824219,-47.9375,-42.3125,-81.0625,0.0,0.0,0.0
1695813718330,-0.6738281,-0.22363281,0.20117188,-31.5625,-22.15625,-55.6875,0.0,0.0,0.0
1695813718354,-0.8642578,-0.0390625,0.16894531,-8.5,-32.1875,-53.46875,0.0,0.0,0.0
1695813718404,-0.98535156,-0.057617188,0.12695312,-29.96875,-39.5625,-63.84375,0.0,0.0,0.0
1695813718455,-0.9765625,-0.09277344,0.10546875,-43.53125,-40.0625,-68.375,-93.75,11.0,-37.25
1695813718480,-1.0009766,0.028320312,0.21679688,-51.59375,-34.4375,-56.09375,0.0,0.0,0.0
1695813718531,-0.921875,0.026367188,0.19335938,-48.78125,-42.5,-49.5,0.0,0.0,0.0
1695813718555,-0.90527344,0.0546875,0.046875,-50.78125,-44.8125,-40.0625,0.0,0.0,0.0
1695813718605,-1.0302734,0.10253906,0.080078125,-50.96875,-22.40625,-18.25,0.0,0.0,0.0
1695813718628,-1.3125,-0.04296875,-0.076171875,-72.34375,5.40625,12.75,0.0,0.0,0.0
1695813718678,-1.3525391,0.08496094,0.0068359375,-126.65625,58.21875,88.71875,0.0,0.0,0.0
1695813718730,-1.5175781,0.00390625,-0.34375,-92.84375,143.65625,181.625,0.0,0.0,0.0
1695813718754,-1.5595703,-0.8564453,0.005859375,-144.0,145.4375,169.84375,0.0,0.0,0.0
1695813718805,-1.3349609,-0.6171875,0.01953125,-136.84375,69.3125,164.0,0.0,0.0,0.0
1695813718830,-1.3330078,0.091796875,-0.021484375,-68.75,114.4375,163.625,0.0,0.0,0.0
1695813718879,-1.1708984,0.39257812,0.041015625,-44.75,119.5625,177.21875,0.0,0.0,0.0
1695813718956,-0.6611328,0.11816406,-0.20019531,-12.65625,125.15625,113.625,-90.3125,26.0,-48.6875
1695813718959,-0.6035156,0.12792969,-0.23925781,7.375,105.15625,90.25,0.0,0.0,0.0
1695813719005,-0.54003906,0.16601562,-0.103515625,21.84375,98.6875,64.625,0.0,0.0,0.0
1695813719029,-0.36035156,0.17285156,-0.24023438,28.5,75.3125,26.21875,0.0,0.0,0.0
1695813719080,-0.2939453,0.23242188,-0.375,-21.1875,28.1875,5.21875,0.0,0.0,0.0
1695813719130,-0.44433594,0.45898438,-0.27246094,-71.71875,-7.34375,-6.84375,0.0,0.0,0.0
1695813719154,-0.51171875,0.52441406,-0.33789062,-52.5,-27.65625,-24.625,0.0,0.0,0.0
1695813719211,-0.64746094,0.65234375,-0.3564453,-17.28125,-38.03125,-39.5625,0.0,0.0,0.0
1695813719228,-0.63378906,0.6015625,-0.44628906,3.34375,-57.03125,-57.9375,0.0,0.0,0.0
1695813719279,-1.6962891,1.3476562,-1.1904297,47.90625,11.40625,-32.59375,0.0,0.0,0.0
1695813719329,-0.953125,0.115234375,-0.32226562,16.21875,-22.65625,-67.46875,0.0,0.0,0.0
1695813719354,-0.2919922,-0.2109375,-0.19433594,-47.625,-65.375,-116.21875,0.0,0.0,0.0
1695813719405,-1.7148438,0.016601562,-0.05859375,-127.9375,-109.5625,-92.53125,0.0,0.0,0.0
1695813719454,-1.2431641,0.50390625,-0.18457031,-46.875,-55.3125,-90.84375,-95.5625,21.8125,-45.6875
1695813719481,-0.5966797,-0.06738281,-0.059570312,-70.375,-63.375,-92.84375,0.0,0.0,0.0
1695813719530,-0.9746094,0.10449219,0.038085938,-50.125,-54.65625,-97.3125,0.0,0.0,0.0
1695813719557,-1.1289062,0.21289062,0.099609375,-26.75,-38.90625,-70.3125,0.0,0.0,0.0
1695813719606,-0.875,0.09375,0.028320312,-17.40625,-31.75,-69.78125,0.0,0.0,0.0
1695813719628,-0.9238281,0.03125,0.020507812,-4.03125,-15.09375,-72.71875,0.0,0.0,0.0
1695813719678,-1.0029297,-0.013671875,0.09863281,-1.53125,-8.1875,-58.4375,0.0,0.0,0.0
1695813719728,-0.9121094,-0.052734375,0.03125,-16.125,-21.75,-50.75,0.0,0.0,0.0
1695813719754,-0.96875,0.0107421875,0.055664062,-35.90625,-22.0625,-43.90625,0.0,0.0,0.0
1695813719804,-1.1201172,0.04296875,0.15332031,-22.78125,-36.28125,-49.5625,0.0,0.0,0.0
1695813719829,-1.2587891,0.06933594,0.018554688,-4.46875,-34.9375,-58.25,0.0,0.0,0.0
1695813719878,-1.4179688,0.00390625,-0.24121094,-0.125,-2.59375,-48.34375,0.0,0.0,0.0
1695813719929,-1.3974609,0.020507812,-0.03125,-17.59375,32.8125,-21.625,-92.25,0.1875,-21.375
1695813719953,-1.2177734,-0.06542969,-0.1640625,-24.25,40.4375,37.875,0.0,0.0,0.0
1695813720021,-1.0302734,-0.28320312,-0.32617188,-131.78125,31.59375,112.28125,0.0,0.0,0.0
1695813720028,-1.3779297,0.3310547,0.10449219,-76.1875,96.59375,180.28125,0.0,0.0,0.0
1695813720077,-1.3789062,0.12695312,0.40820312,-3.3125,85.0625,181.625,0.0,0.0,0.0
1695813720128,-1.0556641,-0.38476562,-0.3310547,61.625,119.0625,144.9375,0.0,0.0,0.0
1695813720154,-0.8339844,-0.32128906,-0.20214844,18.84375,88.4375,143.40625,0.0,0.0,0.0
1695813720205,-0.87402344,0.07421875,-0.15332031,11.59375,71.46875,154.28125,0.0,0.0,0.0
1695813720229,-0.5341797,0.15234375,-0.10644531,-17.21875,65.0,107.28125,0.0,0.0,0.0
1695813720282,-0.40820312,0.2421875,-0.21484375,13.53125,48.375,57.28125,0.0,0.0,0.0
1695813720331,-0.4873047,0.24316406,-0.22070312,37.21875,28.71875,-1.34375,0.0,0.0,0.0
1695813720358,-0.3798828,0.24414062,-0.15234375,34.03125,-14.59375,-58.90625,0.0,0.0,0.0
1695813720405,-0.21875,0.045898438,-0.16308594,-31.15625,-96.34375,-96.625,0.0,0.0,0.0
1695813720479,-1.4882812,1.4755859,0.38378906,-172.75,-157.71875,-80.75,-103.9375,27.5,-49.6875
1695813720480,-2.0,0.71777344,-0.018554688,39.96875,-53.3125,-85.9375,0.0,0.0,0.0
1695813720529,-0.19726562,-0.15527344,-0.36523438,-8.5,-65.125,-85.40625,0.0,0.0,0.0
1695813720553,-1.4169922,-0.0087890625,-0.0703125,19.40625,-54.6875,-72.59375,0.0,0.0,0.0
1695813720604,-1.1142578,0.17089844,-0.047851562,-18.75,-46.84375,-79.0625,0.0,0.0,0.0
1695813720630,-0.703125,0.01953125,0.034179688,-16.25,-55.3125,-63.0,0.0,0.0,0.0
1695813720680,-1.1367188,0.11230469,0.12695312,10.40625,-34.4375,-72.21875,0.0,0.0,0.0
1695813720729,-0.93847656,-0.038085938,0.07128906,15.25,-11.625,-68.4375,0.0,0.0,0.0
1695813720753,-0.8964844,-0.12402344,0.05859375,8.78125,-12.03125,-62.75,0.0,0.0,0.0
1695813720804,-0.9638672,-0.052734375,0.11230469,-11.84375,-15.09375,-66.125,0.0,0.0,0.0
1695813720835,-1.1181641,0.08691406,0.11425781,-19.78125,-23.03125,-45.125,0.0,0.0,0.0
1695813720880,-1.0615234,-0.10058594,0.10644531,-14.0,-28.8125,-58.65625,0.0,0.0,0.0
1695813720930,-1.2587891,-0.07910156,0.12988281,-10.4375,-34.3125,-72.53125,-93.0,0.5,-18.1875
1695813720954,-1.1728516,0.09375,0.0234375,-16.4375,-29.5,-57.28125,0.0,0.0,0.0
1695813721004,-1.1777344,-0.0625,0.032226562,-12.84375,-19.71875,-59.65625,0.0,0.0,0.0
1695813721030,-1.1484375,-0.16113281,0.034179688,-0.25,6.09375,-36.21875,0.0,0.0,0.0
1695813721080,-1.0654297,-0.37402344,-0.2626953,-39.9375,19.53125,15.71875,0.0,0.0,0.0
1695813721130,-1.0449219,-0.0078125,-0.23535156,-139.125,63.34375,115.65625,0.0,0.0,0.0
1695813721159,-1.1875,0.20019531,0.00390625,-99.8125,73.78125,188.21875,0.0,0.0,0.0
1695813721205,-1.1962891,-0.24121094,0.07421875,-116.09375,9.75,164.46875,0.0,0.0,0.0
1695813721231,-0.9267578,-0.5078125,0.013671875,117.71875,94.53125,107.53125,0.0,0.0,0.0
1695813721279,-0.87402344,-0.5019531,-0.25683594,-58.4375,81.65625,115.65625,0.0,0.0,0.0
1695813721330,-0.796875,-0.068359375,0.013671875,-52.125,68.28125,104.96875,0.0,0.0,0.0
1695813721353,-0.5517578,-0.11816406,-0.12890625,-86.3125,39.15625,59.125,0.0,0.0,0.0
1695813721405,-0.59375,0.28125,-0.12890625,-19.65625,51.75,23.25,0.0,0.0,0.0
1695813721453,-0.46679688,-0.03515625,-0.16308594,-32.25,37.65625,-15.8125,-99.4375,14.5625,-40.125
1695813721479,-0.3876953,-0.16894531,-0.12890625,-30.21875,-2.46875,-41.09375,0.0,0.0,0.0
1695813721530,-0.5810547,0.16503906,-0.1484375,-16.0625,-18.03125,-51.40625,0.0,0.0,0.0
1695813721554,-1.09375,0.9326172,-0.29882812,25.625,-44.4375,-77.28125,0.0,0.0,0.0
1695813721604,-1.3222656,0.7294922,-0.2919922,-34.625,-62.75,-68.3125,0.0,0.0,0.0
1695813721630,-1.1943359,0.4716797,-0.4248047,-67.59375,-64.90625,-18.9375,0.0,0.0,0.0
1695813721680,-1.1162109,0.20507812,-0.06640625,-67.46875,-26.6875,7.125,0.0,0.0,0.0
1695813721729,-1.4902344,-0.6875,-0.2607422,37.03125,-30.34375,-37.96875,0.0,0.0,0.0
1695813721754,-0.73535156,-0.6044922,0.016601562,-153.6875,-84.71875,34.78125,0.0,0.0,0.0
1695813721805,-0.54785156,-0.71777344,0.16699219,-142.21875,-53.46875,-83.5,0.0,0.0,0.0
1695813721829,-1.4248047,0.29101562,0.6142578,-97.3125,-51.90625,-65.75,0.0,0.0,0.0
1695813721879,-1.0039062,0.10644531,0.3046875,-55.1875,-33.09375,-17.90625,0.0,0.0,0.0
1695813721930,-0.86035156,-0.11230469,0.19335938,-45.4375,-31.25,-32.0,-91.375,-4.625,-16.4375
1695813721953,-1.0244141,-0.08691406,0.234375,-56.0,-23.28125,-37.25,0.0,0.0,0.0
1695813722003,-1.0009766,-0.11035156,0.19824219,-66.125,-12.34375,-24.84375,0.0,0.0,0.0
1695813722028,-0.96191406,0.016601562,0.115234375,-72.84375,-17.59375,-7.71875,0.0,0.0,0.0
1695813722080,-0.95214844,0.16015625,0.12597656,-71.71875,-17.09375,-12.71875,0.0,0.0,0.0
1695813722130,-0.93847656,0.171875,0.3095703,-87.84375,-14.84375,-20.28125,0.0,0.0,0.0
1695813722154,-0.984375,-0.05859375,-0.024414062,-5.5,-2.59375,-28.59375,0.0,0.0,0.0
1695813722205,-1.0097656,-0.23828125,0.12109375,-20.09375,-17.96875,-29.4375,0.0,0.0,0.0
1695813722229,-1.2753906,-0.43554688,0.060546875,-42.0,-24.84375,-45.375,0.0,0.0,0.0
1695813722280,-1.4238281,0.043945312,0.15527344,-74.125,-13.8125,-28.6875,0.0,0.0,0.0
1695813722330,-1.4921875,0.13769531,0.22460938,-34.9375,27.5,-2.6875,0.0,0.0,0.0
1695813722354,-1.4355469,-0.20507812,-0.16113281,-23.6875,59.375,63.875,0.0,0.0,0.0
1695813722405,-1.2548828,-0.32714844,-0.07128906,-92.1875,103.25,123.21875,0.0,0.0,0.0
1695813722429,-1.2734375,-0.34472656,-0.12109375,-126.96875,118.28125,137.9375,-87.125,-17.8125,-20.625
1695813722479,-1.0625,-0.12207031,0.19628906,-112.5625,68.15625,148.96875,0.0,0.0,0.0
1695813722533,-1.0996094,-0.20507812,-0.09472656,-42.0,67.4375,154.40625,0.0,0.0,0.0
1695813722554,-1.0917969,0.19628906,-0.036132812,20.1875,122.90625,155.875,0.0,0.0,0.0
1695813722604,-0.83203125,-0.015625,-0.23730469,-0.3125,104.0625,139.9375,0.0,0.0,0.0
1695813722628,-0.6738281,-0.0390625,-0.22949219,6.8125,90.3125,117.53125,0.0,0.0,0.0
1695813722678,-0.7216797,0.15820312,-0.31445312,-2.75,71.53125,94.46875,0.0,0.0,0.0
1695813722755,-0.61328125,0.27441406,-0.10546875,37.15625,72.375,65.28125,0.0,0.0,0.0
1695813722757,-0.39257812,0.27539062,-0.3388672,52.90625,65.21875,30.0625,0.0,0.0,0.0
1695813722804,-0.41503906,0.2607422,-0.3173828,23.90625,18.71875,3.46875,0.0,0.0,0.0
1695813722828,-0.43554688,0.19824219,-0.38085938,17.6875,-16.25,-27.0625,0.0,0.0,0.0
1695813722880,-0.453125,0.30664062,-0.359375,2.59375,-43.40625,-53.71875,0.0,0.0,0.0
1695813722931,-0.6953125,0.7832031,-0.625,-42.6875,-88.21875,-76.90625,-107.5625,13.6875,-52.6875
1695813722954,-1.8212891,0.77441406,-0.31640625,-106.34375,-108.96875,-45.1875,0.0,0.0,0.0
1695813723006,-0.43847656,-0.09277344,0.03125,39.09375,-37.0,-126.0625,0.0,0.0,0.0
1695813723028,-0.6972656,-0.09765625,-0.13867188,-58.5625,-100.25,-90.59375,0.0,0.0,0.0
1695813723080,-1.9160156,0.24804688,0.11035156,-38.59375,-118.90625,-67.53125,0.0,0.0,0.0
1695813723129,-0.875,0.21289062,-0.12109375,12.125,-43.21875,-74.96875,0.0,0.0,0.0
1695813723154,-0.67871094,-0.22070312,-0.001953125,5.53125,-51.53125,-78.03125,0.0,0.0,0.0
1695813723205,-1.0800781,0.09863281,-0.0068359375,1.75,-44.3125,-75.875,0.0,0.0,0.0
1695813723229,-0.9003906,0.06542969,0.018554688,-0.125,-28.28125,-71.1875,0.0,0.0,0.0
1695813723279,-0.9042969,0.15625,0.040039062,31.90625,-11.78125,-73.25,0.0,0.0,0.0
1695813723329,-0.9316406,-0.018554688,0.087890625,22.6875,-24.75,-55.5625,0.0,0.0,0.0
1695813723357,-0.9580078,-0.08886719,-0.064453125,6.40625,-28.15625,-48.71875,0.0,0.0,0.0
1695813723405,-1.1757812,0.01953125,0.10644531,-24.3125,-31.6875,-46.46875,0.0,0.0,0.0
1695813723429,-1.2216797,0.07910156,0.115234375,-0.5625,-37.75,-58.0625,-89.5625,-22.3125,-21.5
1695813723480,-1.3935547,0.053710938,0.020507812,9.875,-26.4375,-60.9375,0.0,0.0,0.0
1695813723528,-1.53125,0.057617188,0.026367188,25.125,16.78125,-39.3125,0.0,0.0,0.0
1695813723555,-1.3691406,-0.24609375,-0.3017578,29.03125,37.71875,22.5625,0.0,0.0,0.0
1695813723605,-1.1171875,-0.09472656,-0.31640625,-112.1875,72.1875,100.21875,0.0,0.0,0.0
1695813723630,-1.2109375,0.09863281,-0.047851562,-107.5,117.65625,182.53125,0.0,0.0,0.0
1695813723680,-1.3144531,0.08105469,0.24902344,-80.59375,78.71875,188.21875,0.0,0.0,0.0
1695813723729,-1.0205078,-0.4453125,-0.28125,29.03125,82.25,154.59375,0.0,0.0,0.0
1695813723756,-0.9189453,0.080078125,-0.052734375,67.71875,120.90625,149.46875,0.0,0.0,0.0
1695813723804,-0.87109375,-0.029296875,-0.018554688,6.34375,81.90625,153.65625,0.0,0.0,0.0
1695813723828,-0.44140625,0.09472656,-0.09863281,29.84375,85.6875,107.40625,0.0,0.0,0.0
1695813723878,-0.3828125,0.21582031,-0.24316406,38.125,55.78125,70.25,0.0,0.0,0.0
1695813723928,-0.3017578,0.24804688,-0.24316406,54.3125,21.71875,4.6875,-107.375,12.8125,-53.3125
1695813723953,-0.24316406,0.26660156,-0.13964844,23.1875,-55.0625,-50.0,0.0,0.0,0.0
1695813724005,-0.2421875,0.1484375,-0.30859375,-29.625,-128.1875,-98.15625,0.0,0.0,0.0
1695813724029,-2.0,0.12402344,0.68066406,-112.0625,-179.75,-79.3125,0.0,0.0,0.0
1695813724078,-0.83691406,0.3017578,-0.045898438,0.90625,-46.21875,-73.1875,0.0,0.0,0.0
1695813724128,-0.62109375,0.10449219,-0.20507812,6.75,-69.03125,-77.34375,0.0,0.0,0.0
1695813724155,-1.671875,0.078125,-0.068359375,22.4375,-75.625,-69.59375,0.0,0.0,0.0
1695813724204,-0.85546875,-0.016601562,-0.16113281,-17.53125,-27.25,-81.9375,0.0,0.0,0.0
1695813724229,-0.7783203,0.0390625,-0.064453125,-5.5625,-36.15625,-67.875,0.0,0.0,0.0
1695813724280,-1.2138672,0.19335938,0.109375,4.125,-18.75,-78.6875,0.0,0.0,0.0
1695813724330,-0.8261719,0.005859375,0.05859375,25.5625,-8.375,-67.21875,0.0,0.0,0.0
1695813724354,-0.91308594,-0.07128906,0.06542969,19.40625,-21.5625,-58.0,0.0,0.0,0.0
1695813724407,-0.8847656,0.017578125,0.028320312,9.1875,-18.15625,-59.9375,0.0,0.0,0.0
1695813724428,-0.89453125,-0.041992188,0.0078125,-6.4375,-32.96875,-53.53125,-91.375,-20.5,-26.4375
1695813724478,-1.1933594,0.07714844,0.1875,-16.75,-42.625,-56.90625,0.0,0.0,0.0
1695813724557,-1.4628906,0.16796875,0.18261719,-19.53125,-52.25,-57.6875,0.0,0.0,0.0
1695813724559,-1.2744141,-0.0068359375,-0.064453125,-23.03125,-51.78125,-62.46875,0.0,0.0,0.0
1695813724605,-1.6455078,-0.23925781,-0.0078125,-17.90625,-9.34375,-37.25,0.0,0.0,0.0
1695813724630,-1.2246094,-0.05859375,-0.27148438,-10.9375,44.25,40.375,0.0,0.0,0.0
1695813724680,-1.1357422,0.022460938,-0.13671875,-56.59375,49.78125,121.75,0.0,0.0,0.0
1695813724730,-1.2001953,0.13476562,-0.068359375,-51.09375,110.46875,188.71875,0.0,0.0,0.0
1695813724762,-1.2988281,-0.06640625,0.16601562,-23.75,85.625,186.15625,0.0,0.0,0.0
1695813724805,-0.9765625,-0.42578125,-0.0087890625,36.59375,85.96875,160.75,0.0,0.0,0.0
1695813724828,-1.0566406,0.17578125,-0.061523438,93.75,111.25,160.25,0.0,0.0,0.0
1695813724879,-0.8496094,0.033203125,-0.16796875,11.03125,91.46875,162.71875,0.0,0.0,0.0
1695813724955,-0.53027344,0.0126953125,-0.01171875,55.28125,89.84375,115.28125,-111.875,11.5625,-52.125
1695813724956,-0.49121094,0.20214844,-0.17285156,51.875,78.28125,81.46875,0.0,0.0,0.0
1695813725005,-0.31835938,0.21777344,-0.2578125,74.5,37.40625,18.40625,0.0,0.0,0.0
1695813725028,-0.19433594,0.1484375,-0.21582031,61.25,-36.21875,-37.3125,0.0,0.0,0.0
1695813725079,-0.17871094,0.013671875,-0.028320312,-80.34375,-155.71875,-83.9375,0.0,0.0,0.0
1695813725130,-1.9580078,1.1923828,0.87402344,-138.25,-188.96875,-58.59375,0.0,0.0,0.0
1695813725155,-1.2626953,0.73828125,0.09765625,22.4375,-37.4375,-90.28125,0.0,0.0,0.0
1695813725207,-0.39648438,-0.12402344,-0.24707031,15.78125,-57.6875,-93.71875,0.0,0.0,0.0
1695813725230,-1.9052734,-0.23828125,-0.049804688,12.4375,-61.90625,-77.21875,0.0,0.0,0.0
1695813725279,-0.7636719,0.022460938,-0.12695312,-42.375,-24.4375,-77.28125,0.0,0.0,0.0
1695813725329,-0.7871094,0.16601562,0.02734375,-30.21875,-46.78125,-69.71875,0.0,0.0,0.0
1695813725353,-1.1787109,0.32421875,0.078125,1.5,-28.46875,-73.9375,0.0,0.0,0.0
1695813725406,-0.8691406,0.029296875,0.044921875,42.03125,-10.6875,-65.25,0.0,0.0,0.0
1695813725428,-0.93359375,-0.1484375,0.029296875,33.84375,-15.9375,-66.0625,-95.125,-17.8125,-29.75
1695813725479,-0.82910156,-0.091796875,0.032226562,11.875,-21.4375,-61.28125,0.0,0.0,0.0
1695813725530,-0.9091797,-0.009765625,-0.0087890625,-19.25,-36.9375,-60.8125,0.0,0.0,0.0
1695813725554,-1.1464844,0.14941406,0.099609375,-16.125,-39.5,-52.4375,0.0,0.0,0.0
1695813725607,-1.1630859,0.17480469,0.16015625,1.3125,-49.09375,-68.375,0.0,0.0,0.0
1695813725630,-1.5839844,-0.24511719,-0.15527344,-1.0625,-24.6875,-51.59375,0.0,0.0,0.0
1695813725680,-1.5234375,-0.072265625,-0.061523438,-14.3125,30.9375,-24.5625,0.0,0.0,0.0
1695813725730,-1.2080078,-0.09863281,-0.22851562,-1.84375,57.34375,30.0625,0.0,0.0,0.0
1695813725754,-0.9609375,0.026367188,-0.0146484375,-100.59375,56.8125,99.53125,0.0,0.0,0.0
1695813725812,-1.2910156,0.61621094,0.17285156,-78.09375,80.125,174.78125,0.0,0.0,0.0
1695813725830,-1.4189453,0.047851562,0.3857422,-7.9375,56.0625,177.28125,0.0,0.0,0.0
1695813725879,-1.0791016,-0.4296875,-0.2421875,111.3125,94.40625,149.9375,0.0,0.0,0.0
1695813725929,-0.8935547,-0.2939453,-0.18945312,62.4375,98.625,150.3125,-102.75,-11.375,-40.4375
1695813725954,-0.8847656,0.17480469,-0.20507812,12.875,61.9375,171.1875,0.0,0.0,0.0
1695813726009,-0.5576172,0.0703125,-0.024414062,4.75,76.59375,127.59375,0.0,0.0,0.0
1695813726028,-0.5390625,0.27246094,-0.20117188,44.25,70.90625,96.90625,0.0,0.0,0.0
1695813726079,-0.39453125,0.119140625,-0.23925781,56.875,52.15625,47.40625,0.0,0.0,0.0
1695813726129,-0.21972656,0.2939453,-0.16992188,56.125,14.8125,-7.03125,0.0,0.0,0.0
1695813726154,-0.34179688,0.2109375,-0.22753906,-5.3125,-69.09375,-52.09375,0.0,0.0,0.0
1695813726205,-0.48339844,0.11425781,-0.15527344,-32.65625,-111.03125,-119.09375,0.0,0.0,0.0
1695813726229,-2.0,0.9785156,0.9375,-148.875,-187.40625,-51.71875,0.0,0.0,0.0
1695813726280,-0.50097656,0.11425781,0.021484375,17.0,-29.4375,-82.28125,0.0,0.0,0.0
1695813726330,-0.7685547,0.12890625,-0.23046875,4.125,-56.71875,-82.21875,0.0,0.0,0.0
1695813726354,-1.6552734,0.11230469,-0.048828125,24.875,-67.28125,-77.53125,0.0,0.0,0.0
1695813726405,-0.7636719,0.0068359375,-0.20605469,-9.0,-24.6875,-74.90625,0.0,0.0,0.0
1695813726429,-0.7685547,0.09277344,0.0625,-16.96875,-44.09375,-79.46875,-100.375,-8.9375,-34.6875
1695813726480,-1.2402344,0.3359375,0.095703125,15.65625,-32.0625,-71.625,0.0,0.0,0.0
1695813726556,-0.92285156,0.1328125,0.07128906,48.3125,-6.59375,-64.65625,0.0,0.0,0.0
1695813726558,-0.8613281,-0.09277344,0.06738281,49.0625,-19.5,-63.6875,0.0,0.0,0.0
1695813726606,-1.0195312,-0.107421875,-0.0703125,28.3125,-20.21875,-55.5625,0.0,0.0,0.0
1695813726628,-0.99316406,-0.043945312,0.037109375,3.84375,-25.65625,-47.0,0.0,0.0,0.0
1695813726678,-1.0263672,0.03515625,0.08203125,-4.15625,-26.125,-49.46875,0.0,0.0,0.0
1695813726729,-1.0957031,0.059570312,0.171875,-0.8125,-32.3125,-50.78125,0.0,0.0,0.0
1695813726754,-1.0947266,-0.12011719,-0.0546875,14.3125,-39.5625,-67.46875,0.0,0.0,0.0
1695813726805,-1.3867188,-0.10058594,-0.005859375,-1.34375,-45.59375,-70.5625,0.0,0.0,0.0
1695813726829,-1.1230469,-0.091796875,0.21289062,15.125,-24.0625,-63.84375,0.0,0.0,0.0
1695813726880,-1.1201172,-0.36914062,-0.0234375,37.875,-0.625,-39.125,0.0,0.0,0.0
1695813726930,-1.2451172,-0.22070312,-0.22070312,-31.3125,41.90625,16.28125,-84.3125,-24.6875,-17.9375
1695813726954,-1.1660156,0.076171875,-0.021484375,-101.625,88.65625,86.53125,0.0,0.0,0.0
