,timestamp,accel_x,accel_y,accel_z,gyro_x,gyro_y,gyro_z,mag_x,mag_y,mag_z
0,1695726909349,-0.99609375,-0.0068359375,-0.18066406,0.46875,1.0,0.15625,0.0,0.0,0.0
1,1695726909387,-1.0078125,0.009765625,-0.1640625,1.375,2.53125,0.9375,0.0,0.0,0.0
2,1695726909426,-1.0234375,-0.018554688,-0.140625,3.03125,2.9375,0.875,0.0,0.0,0.0
3,1695726909469,-1.0146484,-0.005859375,-0.1796875,-1.625,-0.71875,1.0625,-86.125,-30.5625,-176.75
4,1695726909506,-1.0117188,0.015625,-0.17089844,-0.15625,-0.84375,1.0,0.0,0.0,0.0
5,1695726909547,-1.0107422,-0.01953125,-0.16113281,0.90625,-1.25,1.25,0.0,0.0,0.0
6,1695726909589,-1.0068359,0.0009765625,-0.19433594,-2.59375,0.25,-0.8125,0.0,0.0,0.0
7,1695726909627,-0.9951172,0.001953125,-0.16894531,0.90625,-1.375,1.375,0.0,0.0,0.0
8,1695726909687,-1.0136719,-0.013671875,-0.17675781,-2.71875,0.9375,0.21875,0.0,0.0,0.0
9,1695726909707,-1.0048828,0.0009765625,-0.15820312,0.09375,1.0,-0.28125,0.0,0.0,0.0
10,1695726909747,-1.0097656,0.0087890625,-0.18359375,-2.34375,0.4375,0.15625,0.0,0.0,0.0
11,1695726909788,-1.0107422,0.0,-0.171875,-0.625,-0.59375,0.53125,0.0,0.0,0.0
12,1695726909826,-1.0087891,-0.0029296875,-0.16699219,0.34375,0.03125,-0.21875,0.0,0.0,0.0
13,1695726909868,-1.0019531,0.005859375,-0.18261719,-1.5625,0.4375,-0.5625,0.0,0.0,0.0
14,1695726909907,-1.0117188,-0.017578125,-0.1640625,0.46875,-0.34375,0.59375,0.0,0.0,0.0
15,1695726909947,-1.0087891,0.0068359375,-0.17675781,-1.375,0.6875,-0.8125,-86.125,-28.0,-175.25
16,1695726909987,-1.0019531,-0.00390625,-0.17578125,-0.375,-0.09375,0.09375,0.0,0.0,0.0
17,1695726910027,-1.0019531,0.001953125,-0.16503906,-0.34375,-0.15625,-0.09375,0.0,0.0,0.0
18,1695726910067,-1.0087891,-0.0048828125,-0.15917969,-0.75,-0.53125,0.03125,0.0,0.0,0.0
19,1695726910111,-1.0097656,0.001953125,-0.16308594,-0.15625,-0.15625,0.15625,0.0,0.0,0.0
20,1695726910149,-0.9941406,-0.0048828125,-0.17871094,-0.09375,-0.53125,0.40625,0.0,0.0,0.0
21,1695726910188,-1.0048828,-0.0126953125,-0.18164062,-0.8125,0.1875,-0.5625,0.0,0.0,0.0
22,1695726910229,-1.0087891,0.0126953125,-0.17675781,1.1875,-0.15625,0.40625,0.0,0.0,0.0
23,1695726910268,-1.0048828,-0.0068359375,-0.17089844,-1.25,-0.59375,-0.09375,0.0,0.0,0.0
24,1695726910308,-1.0048828,-0.0009765625,-0.18652344,-1.0,-0.53125,-0.40625,0.0,0.0,0.0
25,1695726910349,-1.0078125,0.00390625,-0.18261719,0.03125,-0.40625,-0.21875,0.0,0.0,0.0
26,1695726910388,-0.9941406,0.0,-0.17089844,-1.0625,-0.65625,0.21875,0.0,0.0,0.0
27,1695726910449,-1.0039062,-0.009765625,-0.18261719,-0.6875,-0.34375,0.03125,0.0,0.0,0.0
28,1695726910467,-1.0107422,-0.0009765625,-0.17480469,-0.9375,0.25,-0.28125,-85.8125,-27.4375,-175.6875
29,1695726910508,-1.0048828,-0.0107421875,-0.17382812,1.4375,-1.1875,0.46875,0.0,0.0,0.0
30,1695726910550,-1.0048828,-0.0087890625,-0.16503906,-0.28125,-0.53125,-0.34375,0.0,0.0,0.0
31,1695726910588,-1.015625,0.009765625,-0.16894531,0.21875,-0.59375,-0.5,0.0,0.0,0.0
32,1695726910628,-1.0,-0.0234375,-0.16894531,-0.6875,-1.3125,-0.03125,0.0,0.0,0.0
33,1695726910668,-1.0166016,-0.005859375,-0.16308594,1.1875,-0.46875,-0.875,0.0,0.0,0.0
34,1695726910709,-1.0019531,-0.0048828125,-0.16210938,-0.4375,-1.15625,-0.6875,0.0,0.0,0.0
35,1695726910751,-1.0078125,0.01171875,-0.16894531,1.1875,-0.40625,-0.6875,0.0,0.0,0.0
36,1695726910788,-1.0146484,-0.01953125,-0.15917969,0.09375,-0.40625,0.03125,0.0,0.0,0.0
37,1695726910828,-1.0058594,0.0078125,-0.17382812,-1.0,0.03125,-1.125,0.0,0.0,0.0
38,1695726910867,-1.0019531,-0.0048828125,-0.15527344,-0.5625,-1.4375,0.09375,0.0,0.0,0.0
39,1695726910908,-1.0039062,-0.0048828125,-0.15722656,-0.4375,-1.4375,-0.5625,0.0,0.0,0.0
40,1695726910949,-1.0146484,-0.0009765625,-0.15917969,-2.53125,-0.84375,-1.4375,-84.4375,-29.6875,-174.5
41,1695726910989,-1.0107422,0.0029296875,-0.15332031,-0.21875,-2.46875,-0.21875,0.0,0.0,0.0
42,1695726911028,-1.0019531,0.0048828125,-0.1640625,0.40625,-1.75,-0.03125,0.0,0.0,0.0
43,1695726911068,-0.9941406,-0.0126953125,-0.16308594,-0.5,-0.59375,-1.0,0.0,0.0,0.0
44,1695726911108,-0.99902344,0.0068359375,-0.16503906,-2.9375,-1.75,-0.8125,0.0,0.0,0.0
45,1695726911149,-1.0195312,-0.0029296875,-0.15527344,-1.1875,-0.84375,0.03125,0.0,0.0,0.0
46,1695726911208,-1.0166016,-0.013671875,-0.14746094,-1.25,-1.09375,-0.46875,0.0,0.0,0.0
47,1695726911228,-1.0029297,-0.0068359375,-0.15234375,-0.75,-0.78125,-0.6875,0.0,0.0,0.0
48,1695726911268,-1.0048828,-0.013671875,-0.14648438,0.96875,-0.65625,0.40625,0.0,0.0,0.0
49,1695726911308,-0.99902344,-0.0126953125,-0.1640625,-2.09375,-1.3125,-0.625,0.0,0.0,0.0
50,1695726911365,-1.0029297,0.0048828125,-0.14648438,1.0,-0.09375,-0.21875,0.0,0.0,0.0
51,1695726911388,-1.0058594,-0.01171875,-0.15429688,0.84375,-0.15625,0.28125,0.0,0.0,0.0
52,1695726911432,-1.0058594,-0.0029296875,-0.15136719,-0.9375,-0.28125,-0.5625,0.0,0.0,0.0
53,1695726911469,-1.015625,0.009765625,-0.14160156,0.90625,0.3125,-0.15625,-87.625,-27.6875,-175.25
54,1695726911508,-1.0097656,-0.016601562,-0.15039062,-0.875,-1.4375,0.15625,0.0,0.0,0.0
55,1695726911548,-1.0146484,-0.0126953125,-0.1640625,-1.375,-0.84375,-0.40625,0.0,0.0,0.0
56,1695726911591,-1.0048828,0.0,-0.14648438,0.65625,-0.90625,0.21875,0.0,0.0,0.0
57,1695726911627,-0.9941406,-0.0068359375,-0.16601562,0.65625,-0.03125,0.15625,0.0,0.0,0.0
58,1695726911676,-1.0058594,0.00390625,-0.171875,0.65625,0.4375,-0.09375,0.0,0.0,0.0
59,1695726911708,-1.0087891,-0.0009765625,-0.16503906,0.03125,-0.15625,0.15625,0.0,0.0,0.0
60,1695726911748,-1.0175781,-0.0009765625,-0.16894531,-1.0625,0.5625,-0.34375,0.0,0.0,0.0
61,1695726911792,-1.0166016,-0.0068359375,-0.14746094,-0.75,-1.3125,0.59375,0.0,0.0,0.0
62,1695726911827,-1.0068359,-0.0048828125,-0.16894531,-1.625,-1.03125,-0.09375,0.0,0.0,0.0
63,1695726911868,-1.0048828,-0.0107421875,-0.16210938,0.59375,-0.40625,0.21875,0.0,0.0,0.0
64,1695726911909,-1.0078125,-0.0068359375,-0.140625,-1.625,-1.03125,0.09375,0.0,0.0,0.0
65,1695726911969,-1.0087891,0.0029296875,-0.14648438,-0.75,-0.78125,0.28125,-85.0625,-27.6875,-174.9375
66,1695726911987,-1.0058594,-0.015625,-0.14746094,-0.03125,-0.53125,0.28125,0.0,0.0,0.0
67,1695726912028,-1.0039062,-0.0048828125,-0.16015625,-1.65625,-0.40625,-0.15625,0.0,0.0,0.0
68,1695726912069,-1.0107422,0.0029296875,-0.14550781,0.40625,0.4375,0.40625,0.0,0.0,0.0
69,1695726912109,-0.99902344,-0.0087890625,-0.15722656,-1.625,-0.34375,0.65625,0.0,0.0,0.0
70,1695726912148,-1.0097656,-0.0068359375,-0.14257812,-0.09375,1.0625,-0.09375,0.0,0.0,0.0
71,1695726912192,-1.0048828,0.005859375,-0.13476562,-0.625,0.25,-0.09375,0.0,0.0,0.0
72,1695726912229,-1.0117188,-0.0087890625,-0.15722656,-3.375,-0.34375,0.21875,0.0,0.0,0.0
73,1695726912270,-1.0107422,-0.021484375,-0.13378906,0.84375,-0.46875,0.46875,0.0,0.0,0.0
74,1695726912307,-1.0117188,-0.013671875,-0.14160156,-0.9375,-0.34375,-0.5625,0.0,0.0,0.0
75,1695726912349,-1.0058594,0.0068359375,-0.16015625,0.65625,0.03125,-0.09375,0.0,0.0,0.0
76,1695726912387,-1.0126953,0.009765625,-0.13964844,-0.6875,0.1875,0.15625,0.0,0.0,0.0
77,1695726912428,-1.0166016,0.009765625,-0.15429688,-2.15625,-1.375,0.40625,0.0,0.0,0.0
78,1695726912471,-1.0048828,-0.009765625,-0.15625,-2.46875,-1.25,0.15625,-86.125,-27.6875,-175.6875
79,1695726912508,-0.9970703,0.0009765625,-0.14941406,-1.90625,-0.21875,-0.03125,0.0,0.0,0.0
80,1695726912550,-1.0136719,0.0068359375,-0.15039062,-1.90625,0.09375,-0.03125,0.0,0.0,0.0
81,1695726912590,-1.0166016,-0.0048828125,-0.15234375,-1.5,-0.59375,0.53125,0.0,0.0,0.0
82,1695726912628,-1.0087891,0.0029296875,-0.13476562,-1.3125,0.15625,0.09375,0.0,0.0,0.0
83,1695726912669,-1.0166016,-0.015625,-0.140625,-1.96875,-1.625,0.59375,0.0,0.0,0.0
84,1695726912729,-1.0048828,-0.0068359375,-0.15429688,-0.34375,-0.53125,-0.15625,0.0,0.0,0.0
85,1695726912748,-0.99902344,0.0087890625,-0.14257812,1.1875,-0.09375,-0.15625,0.0,0.0,0.0
86,1695726912788,-0.9970703,-0.0087890625,-0.15136719,0.15625,0.09375,-0.09375,0.0,0.0,0.0
87,1695726912828,-1.0126953,-0.00390625,-0.15234375,0.15625,-0.34375,-0.21875,0.0,0.0,0.0
88,1695726912868,-1.0126953,0.001953125,-0.15527344,2.0,-0.09375,0.03125,0.0,0.0,0.0
89,1695726912908,-1.0029297,-0.005859375,-0.13964844,0.71875,-0.21875,-0.09375,0.0,0.0,0.0
90,1695726912948,-1.0058594,0.0,-0.14941406,2.25,0.09375,0.09375,-85.9375,-29.375,-175.5625
91,1695726912988,-1.0087891,0.0126953125,-0.13671875,-0.75,0.75,-0.40625,0.0,0.0,0.0
92,1695726913027,-1.0087891,0.0009765625,-0.14355469,-1.4375,-0.34375,0.09375,0.0,0.0,0.0
93,1695726913073,-1.015625,0.005859375,-0.13671875,0.09375,0.6875,0.28125,0.0,0.0,0.0
94,1695726913109,-1.0175781,-0.0087890625,-0.14257812,-0.75,-0.65625,0.21875,0.0,0.0,0.0
95,1695726913147,-1.0087891,0.0029296875,-0.14941406,-1.0,-0.34375,-0.6875,0.0,0.0,0.0
96,1695726913189,-1.0,0.009765625,-0.14355469,0.03125,-0.96875,-0.03125,0.0,0.0,0.0
97,1695726913229,-1.0117188,-0.0068359375,-0.14648438,-1.65625,-0.90625,-0.15625,0.0,0.0,0.0
98,1695726913269,-1.0068359,-0.00390625,-0.13378906,1.125,-0.15625,-0.21875,0.0,0.0,0.0
99,1695726913309,-1.0087891,0.0078125,-0.13476562,0.78125,0.5625,-0.34375,0.0,0.0,0.0
100,1695726913349,-1.0009766,0.0009765625,-0.15136719,-2.9375,-0.71875,-0.15625,0.0,0.0,0.0
101,1695726913389,-1.0097656,-0.018554688,-0.13671875,0.65625,-0.28125,-0.03125,0.0,0.0,0.0
102,1695726913429,-1.0126953,0.00390625,-0.14160156,2.0,0.15625,0.28125,0.0,0.0,0.0
103,1695726913490,-1.0107422,-0.021484375,-0.14453125,2.59375,-0.03125,-0.09375,-86.875,-29.0625,-173.3125
104,1695726913508,-1.0117188,0.005859375,-0.14648438,1.5625,0.4375,-0.34375,0.0,0.0,0.0
105,1695726913550,-1.0136719,-0.005859375,-0.15527344,0.21875,-0.34375,0.15625,0.0,0.0,0.0
106,1695726913588,-1.0166016,-0.0029296875,-0.14257812,1.0625,-0.78125,-0.03125,0.0,0.0,0.0
107,1695726913628,-1.0019531,-0.0107421875,-0.15625,1.3125,-0.46875,0.15625,0.0,0.0,0.0
108,1695726913669,-1.0029297,-0.0048828125,-0.14453125,-0.875,-0.09375,-0.40625,0.0,0.0,0.0
109,1695726913708,-1.0136719,0.009765625,-0.13964844,0.84375,0.15625,-0.28125,0.0,0.0,0.0
110,1695726913748,-1.0087891,-0.0078125,-0.14257812,-0.03125,-0.03125,0.46875,0.0,0.0,0.0
111,1695726913789,-0.99902344,-0.0107421875,-0.15332031,-0.03125,0.375,-0.40625,0.0,0.0,0.0
112,1695726913829,-1.0029297,0.013671875,-0.13476562,0.34375,1.0,-0.46875,0.0,0.0,0.0
113,1695726913868,-1.0117188,-0.0009765625,-0.14257812,-2.28125,-0.46875,0.46875,0.0,0.0,0.0
114,1695726913908,-1.0009766,0.001953125,-0.14355469,-1.65625,-0.53125,0.15625,0.0,0.0,0.0
115,1695726913951,-1.0107422,-0.0048828125,-0.12597656,-0.875,0.25,0.09375,-85.1875,-27.875,-174.5
116,1695726913989,-1.0058594,-0.0029296875,-0.140625,-1.90625,0.4375,-0.15625,0.0,0.0,0.0
117,1695726914027,-1.0097656,-0.0087890625,-0.15039062,-0.375,0.15625,-0.09375,0.0,0.0,0.0
118,1695726914089,-1.0117188,0.0068359375,-0.12792969,1.4375,0.1875,0.28125,0.0,0.0,0.0
119,1695726914108,-1.0068359,-0.016601562,-0.15429688,-0.875,0.09375,0.15625,0.0,0.0,0.0
120,1695726914152,-1.0087891,0.00390625,-0.14746094,-0.5,0.6875,-0.46875,0.0,0.0,0.0
121,1695726914189,-1.0019531,-0.0068359375,-0.12792969,1.8125,-0.09375,0.9375,0.0,0.0,0.0
122,1695726914248,-1.0107422,-0.016601562,-0.1484375,0.84375,0.4375,-0.03125,0.0,0.0,0.0
123,1695726914269,-1.0126953,0.0068359375,-0.14453125,0.78125,0.8125,-0.40625,0.0,0.0,0.0
124,1695726914309,-1.0087891,-0.0009765625,-0.15039062,1.75,0.8125,0.09375,0.0,0.0,0.0
125,1695726914349,-1.0068359,-0.0087890625,-0.16699219,2.1875,0.8125,0.21875,0.0,0.0,0.0
126,1695726914389,-1.0078125,0.001953125,-0.1484375,-0.28125,1.125,-0.75,0.0,0.0,0.0
127,1695726914428,-1.0078125,0.013671875,-0.15039062,-0.375,0.4375,-0.5,0.0,0.0,0.0
128,1695726914473,-1.0097656,-0.00390625,-0.14746094,1.0625,-0.46875,0.40625,-85.5,-28.625,-173.75
129,1695726914509,-1.0,-0.0029296875,-0.15917969,-0.9375,-0.78125,-0.28125,0.0,0.0,0.0
130,1695726914548,-1.0107422,0.005859375,-0.14257812,-0.09375,0.5,0.03125,0.0,0.0,0.0
131,1695726914593,-1.0039062,-0.0048828125,-0.140625,-0.34375,0.15625,-0.09375,0.0,0.0,0.0
132,1695726914632,-1.0029297,-0.0107421875,-0.15332031,0.84375,0.5625,0.03125,0.0,0.0,0.0
133,1695726914671,-1.0097656,0.001953125,-0.13769531,-0.75,0.15625,-0.28125,0.0,0.0,0.0
134,1695726914708,-1.0087891,0.0048828125,-0.14160156,0.40625,-0.03125,0.15625,0.0,0.0,0.0
135,1695726914754,-1.0166016,-0.017578125,-0.15136719,0.34375,0.03125,-0.15625,0.0,0.0,0.0
136,1695726914789,-1.0107422,-0.0068359375,-0.15136719,0.65625,-0.03125,-0.21875,0.0,0.0,0.0
137,1695726914828,-1.0136719,-0.0107421875,-0.1484375,1.0625,0.4375,-0.34375,0.0,0.0,0.0
138,1695726914870,-1.0146484,-0.00390625,-0.15429688,-0.9375,-0.53125,-0.09375,0.0,0.0,0.0
139,1695726914911,-1.0078125,-0.018554688,-0.14746094,0.96875,-0.53125,-0.03125,0.0,0.0,0.0
140,1695726914951,-1.0097656,-0.0009765625,-0.13867188,3.46875,0.15625,0.34375,-85.1875,-28.9375,-174.5
141,1695726915007,-1.0126953,-0.001953125,-0.15625,1.1875,0.4375,-0.5625,0.0,0.0,0.0
142,1695726915027,-1.0214844,0.0107421875,-0.15039062,1.0625,0.03125,-0.21875,0.0,0.0,0.0
143,1695726915072,-1.0097656,-0.0029296875,-0.14257812,1.25,-0.28125,0.28125,0.0,0.0,0.0
144,1695726915108,-1.0117188,0.001953125,-0.16601562,0.28125,-0.59375,-0.21875,0.0,0.0,0.0
145,1695726915153,-1.0107422,-0.0029296875,-0.14453125,0.28125,-0.28125,-0.875,0.0,0.0,0.0
146,1695726915189,-1.0048828,0.0048828125,-0.13183594,0.34375,-0.65625,0.21875,0.0,0.0,0.0
147,1695726915227,-1.0087891,-0.005859375,-0.15722656,-0.75,-0.53125,-0.15625,0.0,0.0,0.0
148,1695726915268,-1.015625,0.00390625,-0.140625,0.03125,-0.28125,-0.34375,0.0,0.0,0.0
149,1695726915308,-1.0029297,-0.0087890625,-0.16113281,-0.75,-0.40625,-0.09375,0.0,0.0,0.0
150,1695726915348,-1.0048828,-0.00390625,-0.15136719,0.03125,-0.71875,-0.03125,0.0,0.0,0.0
151,1695726915410,-1.0068359,0.0048828125,-0.14355469,-0.28125,-0.21875,-0.34375,0.0,0.0,0.0
152,1695726915428,-1.0009766,-0.0048828125,-0.14257812,-0.15625,-0.21875,0.15625,0.0,0.0,0.0
153,1695726915469,-1.0107422,-0.0078125,-0.140625,-1.84375,-0.46875,-0.34375,-85.5,-28.9375,-174.0625
154,1695726915508,-1.0068359,-0.0078125,-0.15625,1.4375,0.15625,0.21875,0.0,0.0,0.0
155,1695726915548,-1.0078125,-0.0068359375,-0.13476562,-0.8125,0.3125,-0.28125,0.0,0.0,0.0
156,1695726915589,-1.0175781,-0.0087890625,-0.12890625,-0.5625,-1.5625,0.28125,0.0,0.0,0.0
157,1695726915628,-0.9980469,-0.00390625,-0.15625,0.28125,0.09375,-0.15625,0.0,0.0,0.0
158,1695726915669,-1.0068359,-0.021484375,-0.13867188,1.1875,-0.59375,0.46875,0.0,0.0,0.0
159,1695726915709,-1.0097656,-0.0078125,-0.140625,0.21875,0.625,-0.5,0.0,0.0,0.0
160,1695726915769,-1.0126953,0.001953125,-0.12597656,0.28125,0.25,0.03125,0.0,0.0,0.0
161,1695726915788,-1.0039062,-0.0107421875,-0.14257812,0.71875,0.09375,0.15625,0.0,0.0,0.0
162,1695726915829,-1.0107422,-0.0107421875,-0.13574219,-1.25,-0.59375,0.09375,0.0,0.0,0.0
163,1695726915869,-1.0087891,0.00390625,-0.13769531,0.53125,-0.21875,0.03125,0.0,0.0,0.0
164,1695726915909,-0.9951172,-0.00390625,-0.125,0.53125,-0.40625,0.28125,0.0,0.0,0.0
165,1695726915949,-1.0029297,0.005859375,-0.13378906,-0.625,-0.15625,-0.46875,-85.1875,-27.5625,-173.75
166,1695726915989,-1.0097656,0.0068359375,-0.14160156,-0.34375,0.09375,0.15625,0.0,0.0,0.0
167,1695726916028,-1.0175781,-0.0029296875,-0.14453125,-0.5,0.15625,-0.15625,0.0,0.0,0.0
168,1695726916069,-1.0078125,-0.013671875,-0.13183594,-0.15625,-0.09375,-0.28125,0.0,0.0,0.0
169,1695726916109,-1.0009766,0.0029296875,-0.14941406,0.21875,0.375,-0.46875,0.0,0.0,0.0
170,1695726916149,-1.0107422,0.0,-0.15917969,-1.3125,-0.09375,0.03125,0.0,0.0,0.0
171,1695726916187,-1.0048828,-0.025390625,-0.15917969,0.21875,-0.34375,0.46875,0.0,0.0,0.0
172,1695726916227,-1.0107422,-0.0048828125,-0.13378906,0.03125,0.375,-0.40625,0.0,0.0,0.0
173,1695726916271,-1.0029297,0.0078125,-0.14941406,1.3125,0.375,-0.09375,0.0,0.0,0.0
174,1695726916308,-1.0019531,-0.0068359375,-0.13964844,-1.65625,-0.03125,0.03125,0.0,0.0,0.0
175,1695726916349,-1.0029297,-0.01171875,-0.14941406,-0.4375,-0.28125,-0.40625,0.0,0.0,0.0
176,1695726916389,-1.0048828,0.0029296875,-0.14453125,0.34375,0.3125,-0.03125,0.0,0.0,0.0
177,1695726916429,-0.99902344,-0.0029296875,-0.13085938,1.3125,-0.03125,0.28125,0.0,0.0,0.0
178,1695726916469,-1.0087891,-0.0029296875,-0.15332031,-0.6875,0.4375,-0.46875,-85.0625,-28.4375,-174.625
179,1695726916529,-1.0117188,-0.0029296875,-0.14160156,0.46875,0.15625,0.21875,0.0,0.0,0.0
180,1695726916551,-1.0048828,-0.017578125,-0.14550781,-0.15625,0.1875,0.15625,0.0,0.0,0.0
181,1695726916588,-1.0048828,-0.009765625,-0.16015625,0.09375,-0.46875,-0.21875,0.0,0.0,0.0
182,1695726916628,-1.0097656,0.0087890625,-0.14941406,0.96875,0.1875,-0.09375,0.0,0.0,0.0
183,1695726916672,-1.0175781,-0.017578125,-0.1484375,-0.03125,0.375,0.21875,0.0,0.0,0.0
184,1695726916709,-1.0126953,-0.0068359375,-0.16308594,0.40625,0.9375,0.03125,0.0,0.0,0.0
185,1695726916751,-1.0107422,-0.0068359375,-0.13769531,1.0625,1.3125,-0.28125,0.0,0.0,0.0
186,1695726916789,-1.0107422,0.005859375,-0.14648438,1.25,0.75,-0.21875,0.0,0.0,0.0
187,1695726916827,-1.0029297,-0.0126953125,-0.15429688,0.34375,-0.03125,0.21875,0.0,0.0,0.0
188,1695726916869,-1.0029297,0.0009765625,-0.15917969,0.71875,-0.03125,-0.03125,0.0,0.0,0.0
189,1695726916908,-1.0029297,-0.0126953125,-0.15527344,1.25,0.375,-0.15625,0.0,0.0,0.0
190,1695726916954,-1.0146484,0.0107421875,-0.15527344,1.5,1.25,-0.09375,-86.125,-27.6875,-174.9375
191,1695726916988,-1.0107422,-0.001953125,-0.15429688,0.09375,0.1875,0.34375,0.0,0.0,0.0
192,1695726917030,-1.0205078,-0.01171875,-0.15136719,0.71875,0.5,-0.40625,0.0,0.0,0.0
193,1695726917068,-1.0048828,-0.0029296875,-0.16210938,0.34375,0.3125,-0.34375,0.0,0.0,0.0
194,1695726917108,-1.0,-0.005859375,-0.1484375,0.53125,0.25,0.03125,0.0,0.0,0.0
195,1695726917154,-1.0019531,0.001953125,-0.16601562,0.40625,-0.03125,-0.34375,0.0,0.0,0.0
196,1695726917190,-1.0087891,-0.0029296875,-0.15917969,-0.5,0.15625,-0.28125,0.0,0.0,0.0
197,1695726917234,-1.0117188,-0.001953125,-0.15039062,-0.03125,-0.03125,0.03125,0.0,0.0,0.0
198,1695726917288,-1.0097656,-0.01171875,-0.17382812,-0.5,-0.03125,-0.21875,0.0,0.0,0.0
199,1695726917307,-1.0126953,-0.0107421875,-0.15527344,0.40625,0.03125,-0.21875,0.0,0.0,0.0
200,1695726917348,-1.0107422,0.0078125,-0.16796875,-1.125,-0.34375,-0.28125,0.0,0.0,0.0
201,1695726917388,-1.0039062,0.005859375,-0.14453125,0.46875,0.25,-0.28125,0.0,0.0,0.0
202,1695726917430,-0.9951172,-0.015625,-0.15234375,-1.25,-0.21875,-0.03125,0.0,0.0,0.0
203,1695726917471,-1.0039062,-0.0048828125,-0.15820312,-0.09375,0.25,-0.46875,-85.5,-29.6875,-174.5
204,1695726917507,-1.0039062,-0.0068359375,-0.14941406,0.53125,0.1875,-0.40625,0.0,0.0,0.0
205,1695726917548,-1.0078125,-0.005859375,-0.17089844,0.03125,0.5,-0.09375,0.0,0.0,0.0
206,1695726917590,-1.0087891,-0.020507812,-0.16894531,1.0625,1.125,0.09375,0.0,0.0,0.0
207,1695726917630,-1.0175781,-0.005859375,-0.14160156,-0.21875,1.1875,-0.03125,0.0,0.0,0.0
208,1695726917668,-1.0166016,0.0029296875,-0.15234375,0.90625,0.25,-0.03125,0.0,0.0,0.0
209,1695726917711,-1.0097656,-0.0078125,-0.140625,-0.6875,-0.40625,-0.21875,0.0,0.0,0.0
210,1695726917753,-1.0058594,-0.013671875,-0.14257812,-0.03125,-1.03125,-0.28125,0.0,0.0,0.0
211,1695726917808,-1.0175781,-0.009765625,-0.15234375,-0.4375,-0.84375,-0.15625,0.0,0.0,0.0
212,1695726917833,-1.0068359,-0.029296875,-0.13769531,2.0,-0.21875,0.34375,0.0,0.0,0.0
213,1695726917868,-1.0117188,-0.0009765625,-0.15429688,-1.3125,-0.40625,-0.75,0.0,0.0,0.0
214,1695726917908,-1.0107422,0.030273438,-0.14355469,0.03125,0.03125,0.09375,0.0,0.0,0.0
215,1695726917948,-1.0048828,-0.0146484375,-0.16210938,-1.3125,-0.84375,0.53125,-85.1875,-28.9375,-174.5
216,1695726917989,-1.0068359,-0.013671875,-0.15332031,-1.1875,0.15625,-0.28125,0.0,0.0,0.0
217,1695726918051,-1.0117188,-0.005859375,-0.13378906,0.09375,-0.46875,0.40625,0.0,0.0,0.0
218,1695726918069,-1.0097656,-0.0087890625,-0.15136719,-0.5,-0.15625,0.15625,0.0,0.0,0.0
219,1695726918111,-1.0029297,-0.0068359375,-0.14550781,0.34375,-0.71875,-0.03125,0.0,0.0,0.0
220,1695726918149,-1.0107422,-0.01171875,-0.14941406,-0.34375,-0.21875,-0.03125,0.0,0.0,0.0
221,1695726918190,-1.0019531,-0.0087890625,-0.16113281,-0.03125,-0.21875,0.09375,0.0,0.0,0.0
222,1695726918229,-1.0097656,-0.0068359375,-0.14550781,-0.09375,0.4375,0.03125,0.0,0.0,0.0
223,1695726918268,-1.0097656,-0.0078125,-0.15527344,-0.4375,-0.09375,0.03125,0.0,0.0,0.0
224,1695726918309,-1.0185547,-0.0078125,-0.16015625,0.46875,-0.03125,-0.03125,0.0,0.0,0.0
225,1695726918349,-1.0039062,-0.0029296875,-0.15332031,0.03125,-0.15625,0.15625,0.0,0.0,0.0
226,1695726918389,-1.0107422,0.0009765625,-0.14160156,-0.4375,0.15625,-0.15625,0.0,0.0,0.0
227,1695726918429,-1.0029297,-0.0009765625,-0.15039062,1.3125,0.4375,0.40625,0.0,0.0,0.0
228,1695726918469,-1.0087891,-0.0107421875,-0.15039062,-0.75,0.3125,-0.21875,-85.9375,-28.9375,-174.8125
229,1695726918508,-1.0117188,0.005859375,-0.16113281,0.28125,0.03125,-0.09375,0.0,0.0,0.0
230,1695726918548,-1.0029297,-0.0107421875,-0.15039062,0.71875,0.5,0.28125,0.0,0.0,0.0
231,1695726918588,-1.0048828,0.001953125,-0.14550781,-0.9375,-0.28125,-0.15625,0.0,0.0,0.0
232,1695726918630,-1.0224609,-0.0068359375,-0.14453125,0.28125,0.375,-0.28125,0.0,0.0,0.0
233,1695726918669,-1.0029297,-0.0146484375,-0.14941406,0.46875,-0.21875,0.09375,0.0,0.0,0.0
234,1695726918708,-1.0136719,0.0048828125,-0.15820312,-0.625,-0.03125,0.03125,0.0,0.0,0.0
235,1695726918754,-1.0058594,-0.0087890625,-0.15625,0.03125,-0.09375,0.21875,0.0,0.0,0.0
236,1695726918809,-1.0146484,-0.01171875,-0.15527344,-0.625,-0.09375,-0.03125,0.0,0.0,0.0
237,1695726918829,-1.0048828,-0.005859375,-0.15429688,-0.34375,-0.15625,-0.09375,0.0,0.0,0.0
238,1695726918870,-1.0107422,-0.0029296875,-0.15527344,-0.09375,-0.21875,0.09375,0.0,0.0,0.0
239,1695726918908,-1.0058594,-0.009765625,-0.1484375,-0.21875,-1.03125,0.15625,0.0,0.0,0.0
240,1695726918948,-1.0107422,0.009765625,-0.16601562,-0.15625,-0.46875,-0.21875,-85.5,-27.125,-175.125
241,1695726918988,-1.0039062,-0.01171875,-0.1484375,-0.03125,-0.65625,0.46875,0.0,0.0,0.0
242,1695726919032,-1.0058594,-0.005859375,-0.15820312,-0.875,-0.03125,-0.09375,0.0,0.0,0.0
243,1695726919067,-1.0097656,0.001953125,-0.15039062,0.03125,0.03125,0.28125,0.0,0.0,0.0
244,1695726919108,-1.0078125,-0.005859375,-0.13867188,-0.28125,-0.15625,0.21875,0.0,0.0,0.0
245,1695726919149,-1.0068359,-0.0009765625,-0.14648438,-1.125,-0.96875,-0.09375,0.0,0.0,0.0
246,1695726919188,-1.0048828,0.0126953125,-0.15234375,0.28125,-0.03125,-0.09375,0.0,0.0,0.0
247,1695726919229,-1.0097656,-0.0009765625,-0.14648438,0.40625,-0.28125,0.59375,0.0,0.0,0.0
248,1695726919268,-1.0087891,-0.01171875,-0.14746094,-0.5625,-0.15625,0.09375,0.0,0.0,0.0
249,1695726919309,-1.015625,0.001953125,-0.14746094,1.5625,0.9375,0.03125,0.0,0.0,0.0
250,1695726919349,-1.0019531,-0.013671875,-0.13964844,0.21875,-0.34375,-0.09375,0.0,0.0,0.0
251,1695726919388,-1.0048828,0.009765625,-0.16015625,1.0625,0.5,-0.15625,0.0,0.0,0.0
252,1695726919428,-1.0117188,-0.0087890625,-0.13574219,1.1875,0.6875,0.15625,0.0,0.0,0.0
253,1695726919468,-1.0126953,-0.01953125,-0.15722656,-0.8125,0.3125,-0.34375,-85.0625,-28.4375,-174.9375
254,1695726919508,-1.0068359,-0.0068359375,-0.13574219,-0.34375,0.03125,-0.15625,0.0,0.0,0.0
255,1695726919570,-1.0136719,0.0009765625,-0.14355469,0.15625,-0.03125,0.15625,0.0,0.0,0.0
256,1695726919590,-1.0048828,-0.0146484375,-0.16113281,-1.90625,-1.4375,0.03125,0.0,0.0,0.0
257,1695726919629,-1.0048828,0.0048828125,-0.16015625,0.65625,0.4375,-0.34375,0.0,0.0,0.0
258,1695726919675,-1.0019531,-0.0087890625,-0.14257812,-1.90625,-0.90625,0.09375,0.0,0.0,0.0
259,1695726919709,-1.0107422,0.0048828125,-0.15332031,0.03125,0.375,-0.03125,0.0,0.0,0.0
260,1695726919748,-1.0058594,-0.020507812,-0.14550781,-1.3125,-0.71875,0.21875,0.0,0.0,0.0
261,1695726919788,-1.0166016,0.00390625,-0.14550781,0.46875,0.15625,-0.34375,0.0,0.0,0.0
262,1695726919832,-1.0146484,-0.0078125,-0.14941406,0.90625,0.03125,0.15625,0.0,0.0,0.0
263,1695726919870,-1.0039062,-0.001953125,-0.14160156,-0.34375,-0.40625,0.03125,0.0,0.0,0.0
264,1695726919908,-1.0136719,-0.0048828125,-0.1484375,-0.28125,-0.03125,0.21875,0.0,0.0,0.0
265,1695726919949,-1.0039062,-0.017578125,-0.14746094,-0.03125,-0.03125,0.03125,-86.125,-29.0625,-174.1875
266,1695726919989,-1.0107422,-0.0009765625,-0.1484375,1.8125,0.15625,-0.09375,0.0,0.0,0.0
267,1695726920029,-1.0068359,-0.017578125,-0.14648438,-0.03125,-0.53125,-0.21875,0.0,0.0,0.0
268,1695726920068,-1.0068359,0.0107421875,-0.15136719,0.65625,0.25,-0.28125,0.0,0.0,0.0
269,1695726920109,-1.0097656,-0.005859375,-0.15917969,-0.75,-0.28125,-0.09375,0.0,0.0,0.0
270,1695726920154,-1.0058594,0.005859375,-0.15722656,-0.09375,-0.03125,0.03125,0.0,0.0,0.0
271,1695726920188,-1.0058594,-0.0126953125,-0.13769531,-0.09375,-0.09375,0.03125,0.0,0.0,0.0
272,1695726920230,-1.0126953,0.00390625,-0.15917969,-0.34375,0.625,-0.46875,0.0,0.0,0.0
273,1695726920271,-1.015625,-0.0107421875,-0.15234375,-0.03125,-0.34375,0.09375,0.0,0.0,0.0
274,1695726920329,-1.0146484,-0.0234375,-0.15136719,-0.03125,-0.34375,0.15625,0.0,0.0,0.0
275,1695726920352,-1.0058594,-0.0009765625,-0.15136719,-0.03125,0.25,-0.28125,0.0,0.0,0.0
276,1695726920387,-1.0107422,-0.00390625,-0.14160156,-0.6875,0.03125,-0.15625,0.0,0.0,0.0
277,1695726920432,-1.0146484,-0.00390625,-0.15625,-0.03125,-0.09375,0.15625,0.0,0.0,0.0
278,1695726920471,-1.0097656,-0.0009765625,-0.12207031,-0.4375,0.5,-0.28125,-85.375,-29.5,-174.1875
279,1695726920507,-1.0117188,-0.0107421875,-0.14257812,-0.5625,0.25,0.15625,0.0,0.0,0.0
280,1695726920549,-1.0126953,-0.0087890625,-0.15722656,0.96875,1.65625,-0.28125,0.0,0.0,0.0
281,1695726920589,-1.0087891,-0.005859375,-0.14453125,0.40625,1.125,0.21875,0.0,0.0,0.0
282,1695726920629,-1.0058594,-0.0107421875,-0.15429688,-1.4375,-0.09375,-0.40625,0.0,0.0,0.0
283,1695726920668,-1.0126953,0.001953125,-0.15332031,1.0,0.25,0.09375,0.0,0.0,0.0
284,1695726920708,-1.0068359,-0.0087890625,-0.14257812,-0.6875,0.09375,0.03125,0.0,0.0,0.0
285,1695726920748,-1.0126953,-0.0107421875,-0.13867188,-0.09375,-0.65625,0.09375,0.0,0.0,0.0
286,1695726920788,-1.0029297,0.0068359375,-0.1484375,0.34375,0.09375,0.09375,0.0,0.0,0.0
287,1695726920831,-1.0097656,-0.024414062,-0.140625,-0.28125,-0.21875,-0.15625,0.0,0.0,0.0
288,1695726920868,-1.0068359,0.005859375,-0.13867188,-0.15625,-0.15625,-0.34375,0.0,0.0,0.0
289,1695726920909,-1.0097656,-0.013671875,-0.14453125,1.5,-0.15625,0.65625,0.0,0.0,0.0
290,1695726920949,-1.0068359,-0.005859375,-0.16015625,-0.75,0.15625,-0.40625,-86.875,-29.0625,-174.1875
291,1695726920988,-1.0029297,0.0,-0.15332031,0.53125,-0.03125,-0.34375,0.0,0.0,0.0
292,1695726921028,-1.0107422,-0.0029296875,-0.17285156,0.28125,0.375,0.09375,0.0,0.0,0.0
293,1695726921089,-1.0,-0.009765625,-0.15429688,-1.5625,-0.09375,-0.15625,0.0,0.0,0.0
294,1695726921108,-1.0,-0.0029296875,-0.14453125,1.5,0.625,0.46875,0.0,0.0,0.0
295,1695726921149,-1.0107422,-0.0048828125,-0.15820312,-0.34375,0.75,-0.28125,0.0,0.0,0.0
296,1695726921189,-1.0166016,0.005859375,-0.15136719,0.46875,1.0,-0.03125,0.0,0.0,0.0
297,1695726921227,-1.0009766,-0.01953125,-0.14355469,0.90625,-0.21875,0.53125,0.0,0.0,0.0
298,1695726921268,-1.0058594,0.0009765625,-0.16210938,-0.09375,-0.03125,-0.03125,0.0,0.0,0.0
299,1695726921308,-1.0029297,-0.001953125,-0.15332031,1.0,1.0625,0.28125,0.0,0.0,0.0
300,1695726921350,-1.0048828,-0.01171875,-0.1484375,-2.15625,0.09375,0.09375,0.0,0.0,0.0
301,1695726921387,-1.0117188,0.0107421875,-0.14453125,0.34375,0.75,0.09375,0.0,0.0,0.0
302,1695726921428,-1.0019531,-0.0087890625,-0.14648438,-0.9375,-0.40625,0.03125,0.0,0.0,0.0
303,1695726921468,-1.015625,0.0029296875,-0.15234375,0.71875,0.3125,0.03125,-85.9375,-28.9375,-173.75
304,1695726921508,-1.0,-0.0126953125,-0.14648438,0.65625,0.4375,-0.03125,0.0,0.0,0.0
305,1695726921549,-1.0126953,0.005859375,-0.16503906,1.125,1.78125,-0.21875,0.0,0.0,0.0
306,1695726921589,-1.0048828,-0.009765625,-0.16015625,0.78125,1.125,0.34375,0.0,0.0,0.0
307,1695726921628,-1.0107422,0.0009765625,-0.17480469,-0.5,0.5625,-0.40625,0.0,0.0,0.0
308,1695726921668,-1.0117188,0.0068359375,-0.14355469,0.46875,0.1875,0.15625,0.0,0.0,0.0
309,1695726921709,-1.0009766,-0.0146484375,-0.17773438,-2.28125,-0.53125,-0.34375,0.0,0.0,0.0
310,1695726921749,-1.0039062,0.0048828125,-0.15332031,1.125,0.15625,0.21875,0.0,0.0,0.0
311,1695726921789,-1.0009766,-0.0078125,-0.16992188,-1.0,0.09375,-0.28125,0.0,0.0,0.0
312,1695726921869,-1.0019531,-0.0068359375,-0.14746094,0.03125,0.09375,0.21875,0.0,0.0,0.0
313,1695726921871,-1.0097656,-0.00390625,-0.14257812,-1.125,-1.6875,-0.09375,0.0,0.0,0.0
314,1695726921909,-1.0068359,0.0048828125,-0.15722656,-1.125,-1.03125,-0.5,0.0,0.0,0.0
315,1695726921951,-1.0039062,-0.0107421875,-0.14160156,1.0625,-0.15625,0.40625,-87.3125,-28.625,-174.0625
316,1695726921989,-0.9980469,-0.0087890625,-0.16601562,-1.625,-0.65625,-0.625,0.0,0.0,0.0
317,1695726922030,-1.0117188,0.0078125,-0.16113281,1.8125,0.15625,-0.15625,0.0,0.0,0.0
318,1695726922069,-1.0136719,-0.0126953125,-0.14550781,-0.15625,-0.09375,0.03125,0.0,0.0,0.0
319,1695726922108,-1.0058594,0.0126953125,-0.16308594,0.84375,0.4375,-0.21875,0.0,0.0,0.0
320,1695726922150,-1.0195312,-0.0068359375,-0.14453125,0.84375,0.9375,0.15625,0.0,0.0,0.0
321,1695726922188,-1.0097656,-0.0146484375,-0.14550781,0.09375,-0.03125,-0.21875,0.0,0.0,0.0
322,1695726922231,-1.0019531,0.001953125,-0.16894531,-0.15625,-0.40625,-0.09375,0.0,0.0,0.0
323,1695726922269,-1.0009766,-0.017578125,-0.16308594,-0.6875,-0.40625,-0.09375,0.0,0.0,0.0
324,1695726922309,-1.0097656,0.0087890625,-0.16015625,0.71875,0.15625,-0.21875,0.0,0.0,0.0
325,1695726922350,-1.0048828,-0.0087890625,-0.16113281,-0.5625,0.6875,0.34375,0.0,0.0,0.0
326,1695726922388,-1.0087891,-0.0078125,-0.1484375,-1.90625,-0.53125,-0.09375,0.0,0.0,0.0
327,1695726922429,-1.0136719,-0.0029296875,-0.16894531,-0.03125,0.5,0.09375,0.0,0.0,0.0
328,1695726922468,-0.99609375,-0.01171875,-0.15820312,-0.9375,-0.21875,0.03125,-85.9375,-27.875,-174.0625
329,1695726922530,-1.0107422,-0.00390625,-0.15625,1.1875,0.625,-0.03125,0.0,0.0,0.0
330,1695726922550,-1.0,-0.009765625,-0.16503906,1.0,0.5,0.03125,0.0,0.0,0.0
331,1695726922607,-1.0058594,-0.005859375,-0.15527344,-0.5,0.6875,-0.34375,0.0,0.0,0.0
332,1695726922630,-1.0029297,-0.001953125,-0.15234375,-0.09375,0.625,0.09375,0.0,0.0,0.0
333,1695726922669,-1.0097656,-0.0146484375,-0.14941406,0.34375,0.1875,0.28125,0.0,0.0,0.0
334,1695726922708,-1.0087891,-0.00390625,-0.16015625,-0.6875,-0.15625,-0.21875,0.0,0.0,0.0
335,1695726922749,-0.99609375,-0.01171875,-0.16992188,-0.09375,-0.71875,0.34375,0.0,0.0,0.0
336,1695726922789,-0.9970703,-0.0087890625,-0.16894531,0.96875,1.0625,0.03125,0.0,0.0,0.0
337,1695726922829,-1.0136719,0.009765625,-0.14746094,0.15625,1.1875,-0.03125,0.0,0.0,0.0
338,1695726922871,-1.0175781,-0.0107421875,-0.15722656,-0.03125,-0.34375,0.09375,0.0,0.0,0.0
339,1695726922910,-1.0107422,-0.0068359375,-0.15332031,0.65625,-0.65625,0.15625,0.0,0.0,0.0
340,1695726922948,-1.0019531,-0.024414062,-0.18261719,2.0,-0.96875,-0.5,-84.875,-28.625,-174.8125
341,1695726922987,-1.0029297,0.026367188,-0.16894531,1.4375,-0.65625,-0.46875,0.0,0.0,0.0
342,1695726923030,-0.9980469,0.0126953125,-0.17089844,2.1875,0.3125,0.8125,0.0,0.0,0.0
343,1695726923088,-1.0087891,-0.0107421875,-0.1640625,-0.8125,-0.21875,0.28125,0.0,0.0,0.0
344,1695726923109,-1.0048828,0.0048828125,-0.15625,0.15625,-0.03125,-0.15625,0.0,0.0,0.0
345,1695726923149,-0.99316406,-0.0146484375,-0.15136719,0.21875,0.15625,0.34375,0.0,0.0,0.0
346,1695726923193,-1.0117188,0.0029296875,-0.15917969,-0.75,-0.96875,-0.34375,0.0,0.0,0.0
347,1695726923227,-1.0107422,0.0107421875,-0.16503906,-0.4375,-1.5,0.03125,0.0,0.0,0.0
348,1695726923268,-1.0029297,-0.009765625,-0.1640625,-0.5,-1.25,0.28125,0.0,0.0,0.0
349,1695726923309,-1.0136719,-0.001953125,-0.15429688,0.15625,-0.90625,0.15625,0.0,0.0,0.0
350,1695726923368,-1.0087891,-0.00390625,-0.15722656,0.59375,-0.46875,0.03125,0.0,0.0,0.0
351,1695726923388,-1.0039062,-0.0029296875,-0.14648438,0.40625,0.375,0.46875,0.0,0.0,0.0
352,1695726923430,-1.0097656,-0.0234375,-0.14257812,-0.34375,-0.34375,-0.28125,0.0,0.0,0.0
353,1695726923468,-1.0166016,0.0048828125,-0.15039062,1.0,0.15625,-0.5625,-86.125,-28.4375,-174.9375
354,1695726923514,-1.0097656,-0.0009765625,-0.14160156,0.78125,-0.40625,0.03125,0.0,0.0,0.0
355,1695726923547,-1.0009766,0.0029296875,-0.16601562,-0.03125,-0.28125,-0.34375,0.0,0.0,0.0
356,1695726923587,-1.0087891,0.0048828125,-0.1484375,-0.15625,0.15625,-0.34375,0.0,0.0,0.0
357,1695726923628,-1.0117188,-0.0009765625,-0.1640625,-0.75,-0.21875,0.09375,0.0,0.0,0.0
358,1695726923669,-1.0126953,0.0009765625,-0.15234375,-1.0,-0.21875,0.03125,0.0,0.0,0.0
359,1695726923709,-1.0087891,0.015625,-0.15917969,-1.71875,0.75,-0.40625,0.0,0.0,0.0
360,1695726923749,-0.9970703,-0.0087890625,-0.15917969,-1.1875,0.25,0.53125,0.0,0.0,0.0
361,1695726923788,-1.0136719,-0.009765625,-0.14746094,-0.4375,0.09375,0.15625,0.0,0.0,0.0
362,1695726923829,-1.0068359,-0.015625,-0.1640625,0.65625,1.0,-0.03125,0.0,0.0,0.0
363,1695726923868,-1.0107422,-0.005859375,-0.14648438,1.4375,0.3125,-0.34375,0.0,0.0,0.0
364,1695726923909,-1.0048828,0.0048828125,-0.16210938,2.0,0.25,-0.5,0.0,0.0,0.0
365,1695726923949,-0.99902344,-0.0087890625,-0.16601562,1.875,-0.28125,0.28125,-85.375,-28.0,-174.1875
366,1695726923988,-1.0058594,0.0,-0.16113281,0.40625,0.375,-0.40625,0.0,0.0,0.0
367,1695726924029,-1.0117188,-0.00390625,-0.1640625,1.25,0.375,-0.09375,0.0,0.0,0.0
368,1695726924068,-1.0058594,-0.0146484375,-0.16308594,-0.375,-0.28125,-0.40625,0.0,0.0,0.0
369,1695726924128,-1.0009766,-0.00390625,-0.15722656,0.78125,0.15625,0.15625,0.0,0.0,0.0
370,1695726924149,-1.0,-0.016601562,-0.16015625,0.40625,-0.78125,-0.03125,0.0,0.0,0.0
371,1695726924193,-1.0039062,-0.001953125,-0.16015625,1.0,0.1875,-0.03125,0.0,0.0,0.0
372,1695726924228,-1.0097656,-0.0068359375,-0.16601562,-0.28125,-0.78125,0.03125,0.0,0.0,0.0
373,1695726924268,-1.0107422,0.00390625,-0.16308594,-0.375,0.15625,-0.15625,0.0,0.0,0.0
374,1695726924309,-1.0058594,-0.0029296875,-0.15136719,-0.75,-0.84375,0.21875,0.0,0.0,0.0
375,1695726924348,-1.0097656,0.001953125,-0.17480469,-0.15625,-0.34375,0.09375,0.0,0.0,0.0
376,1695726924388,-1.0009766,-0.015625,-0.14941406,-1.5,-0.90625,-0.15625,0.0,0.0,0.0
377,1695726924430,-1.0136719,0.005859375,-0.16210938,-0.375,-0.59375,-0.09375,0.0,0.0,0.0
378,1695726924468,-1.0019531,-0.0087890625,-0.15332031,-0.8125,-1.375,0.15625,-85.0625,-28.4375,-175.25
379,1695726924513,-1.0087891,0.0029296875,-0.15429688,0.90625,0.25,0.09375,0.0,0.0,0.0
380,1695726924568,-1.0078125,-0.0146484375,-0.15917969,-0.75,-1.03125,-0.21875,0.0,0.0,0.0
381,1695726924588,-1.0097656,0.005859375,-0.1640625,-0.4375,-0.28125,-0.21875,0.0,0.0,0.0
382,1695726924631,-1.0107422,-0.001953125,-0.15136719,-0.6875,-0.21875,0.65625,0.0,0.0,0.0
383,1695726924668,-1.0107422,-0.0029296875,-0.16308594,-0.75,0.15625,0.15625,0.0,0.0,0.0
384,1695726924714,-1.0078125,-0.00390625,-0.15039062,-0.21875,-0.28125,-0.09375,0.0,0.0,0.0
385,1695726924750,-1.0175781,0.00390625,-0.13671875,1.0,-0.34375,-0.15625,0.0,0.0,0.0
386,1695726924791,-1.0,-0.021484375,-0.15625,0.46875,-1.03125,0.15625,0.0,0.0,0.0
387,1695726924831,-1.0039062,0.00390625,-0.15332031,0.34375,-0.59375,-0.46875,0.0,0.0,0.0
388,1695726924887,-1.0087891,-0.0087890625,-0.16503906,0.78125,-0.03125,0.15625,0.0,0.0,0.0
389,1695726924912,-1.0048828,-0.0068359375,-0.15039062,-0.5625,-0.65625,-0.09375,0.0,0.0,0.0
390,1695726924949,-0.99902344,-0.0048828125,-0.15332031,-0.15625,-0.03125,0.03125,-88.625,-28.75,-174.1875
391,1695726924988,-1.0039062,-0.009765625,-0.13769531,0.71875,-0.28125,0.21875,0.0,0.0,0.0
392,1695726925029,-1.0126953,-0.0068359375,-0.15722656,-0.09375,0.1875,0.28125,0.0,0.0,0.0
393,1695726925068,-1.0126953,-0.0126953125,-0.15429688,0.15625,-0.15625,-0.40625,0.0,0.0,0.0
394,1695726925109,-1.0058594,-0.00390625,-0.15039062,-0.75,-0.96875,-0.6875,0.0,0.0,0.0
395,1695726925149,-1.0048828,0.0029296875,-0.14257812,0.71875,-0.71875,0.15625,0.0,0.0,0.0
396,1695726925189,-1.0019531,-0.0068359375,-0.15429688,-1.96875,-0.40625,0.03125,0.0,0.0,0.0
397,1695726925229,-1.0039062,-0.0146484375,-0.15429688,-0.4375,-0.71875,-0.09375,0.0,0.0,0.0
398,1695726925267,-1.0048828,-0.0029296875,-0.140625,0.34375,-0.28125,0.09375,0.0,0.0,0.0
399,1695726925308,-1.0009766,0.001953125,-0.15527344,-0.4375,-0.46875,-0.03125,0.0,0.0,0.0
400,1695726925347,-1.0107422,0.0009765625,-0.15136719,-0.375,-0.09375,-0.09375,0.0,0.0,0.0
401,1695726925389,-1.0048828,-0.01171875,-0.15039062,-0.9375,-0.84375,-0.03125,0.0,0.0,0.0
402,1695726925430,-1.0107422,-0.01171875,-0.140625,1.3125,0.375,-0.15625,0.0,0.0,0.0
403,1695726925468,-1.0126953,-0.005859375,-0.15332031,-0.03125,-0.46875,-0.40625,-86.375,-28.75,-174.625
404,1695726925513,-1.0029297,-0.001953125,-0.16015625,0.46875,0.03125,0.09375,0.0,0.0,0.0
405,1695726925548,-0.9980469,0.0,-0.15527344,0.53125,-0.46875,0.15625,0.0,0.0,0.0
406,1695726925588,-1.0068359,-0.001953125,-0.171875,0.03125,0.15625,-0.15625,0.0,0.0,0.0
407,1695726925650,-0.99902344,-0.0078125,-0.16308594,0.46875,-0.15625,0.28125,0.0,0.0,0.0
408,1695726925669,-1.0048828,-0.0146484375,-0.15625,1.3125,0.1875,-0.03125,0.0,0.0,0.0
409,1695726925708,-1.0039062,-0.013671875,-0.17480469,-0.28125,0.15625,-0.15625,0.0,0.0,0.0
410,1695726925748,-1.0039062,-0.0078125,-0.140625,0.03125,-0.40625,0.15625,0.0,0.0,0.0
411,1695726925788,-1.0009766,-0.020507812,-0.15429688,0.65625,-0.53125,0.21875,0.0,0.0,0.0
412,1695726925828,-1.0029297,-0.0087890625,-0.15332031,0.28125,0.03125,-0.21875,0.0,0.0,0.0
413,1695726925867,-1.0019531,-0.0048828125,-0.15039062,1.875,0.625,0.21875,0.0,0.0,0.0
414,1695726925908,-1.0117188,-0.0068359375,-0.15136719,-0.6875,0.1875,-0.21875,0.0,0.0,0.0
415,1695726925949,-1.0253906,-0.0107421875,-0.14355469,0.78125,0.03125,0.40625,-85.8125,-29.5,-175.6875
416,1695726925988,-1.0078125,-0.020507812,-0.15039062,1.9375,0.25,0.21875,0.0,0.0,0.0
417,1695726926029,-1.0107422,0.00390625,-0.16699219,-1.625,-0.34375,-0.75,0.0,0.0,0.0
418,1695726926068,-1.0068359,0.005859375,-0.15820312,0.40625,-0.53125,-0.09375,0.0,0.0,0.0
419,1695726926110,-1.0107422,-0.0107421875,-0.1484375,0.65625,-0.09375,0.28125,0.0,0.0,0.0
420,1695726926149,-1.0107422,-0.00390625,-0.16015625,-1.65625,-0.21875,-0.09375,0.0,0.0,0.0
421,1695726926196,-1.0068359,0.0029296875,-0.15527344,0.46875,-0.53125,-0.09375,0.0,0.0,0.0
422,1695726926230,-1.0107422,0.0029296875,-0.16210938,0.53125,0.5,0.09375,0.0,0.0,0.0
423,1695726926269,-1.0009766,-0.0068359375,-0.14746094,-0.15625,0.03125,0.15625,0.0,0.0,0.0
424,1695726926309,-1.0058594,-0.0078125,-0.16503906,-0.34375,-1.1875,-0.03125,0.0,0.0,0.0
425,1695726926348,-1.0244141,0.0068359375,-0.15722656,0.90625,0.8125,-0.09375,0.0,0.0,0.0
426,1695726926409,-1.0087891,-0.01171875,-0.15527344,-0.625,-0.90625,0.03125,0.0,0.0,0.0
427,1695726926429,-1.0126953,0.0009765625,-0.16113281,0.09375,-0.65625,-0.09375,0.0,0.0,0.0
428,1695726926468,-1.0068359,-0.0087890625,-0.15527344,0.59375,0.5625,0.40625,-85.5,-27.875,-175.5625
429,1695726926509,-1.0117188,-0.018554688,-0.15332031,-0.375,-0.71875,-0.15625,0.0,0.0,0.0
430,1695726926548,-1.0126953,-0.0029296875,-0.16308594,0.90625,0.5625,-0.15625,0.0,0.0,0.0
431,1695726926589,-1.0039062,-0.01171875,-0.16015625,0.59375,-0.90625,0.03125,0.0,0.0,0.0
432,1695726926629,-1.0058594,0.0146484375,-0.15234375,-0.4375,-0.34375,-0.09375,0.0,0.0,0.0
433,1695726926668,-1.0107422,-0.01171875,-0.14160156,0.15625,0.03125,0.34375,0.0,0.0,0.0
434,1695726926711,-1.0087891,-0.0048828125,-0.15234375,-1.25,-0.53125,0.15625,0.0,0.0,0.0
435,1695726926748,-1.0029297,-0.0087890625,-0.15332031,0.90625,-0.03125,0.15625,0.0,0.0,0.0
436,1695726926790,-1.0048828,-0.018554688,-0.16015625,-0.8125,-1.1875,0.03125,0.0,0.0,0.0
437,1695726926829,-1.0058594,0.001953125,-0.15820312,0.53125,-0.59375,0.09375,0.0,0.0,0.0
438,1695726926868,-1.0068359,-0.013671875,-0.14355469,0.53125,-0.03125,0.28125,0.0,0.0,0.0
439,1695726926910,-1.0029297,-0.01953125,-0.16699219,-0.5625,-0.65625,-0.15625,0.0,0.0,0.0
440,1695726926949,-1.0117188,0.001953125,-0.15722656,0.59375,-0.15625,-0.21875,-87.3125,-28.625,-175.5625
441,1695726926988,-1.0175781,-0.01171875,-0.16308594,-0.5625,-0.65625,0.34375,0.0,0.0,0.0
442,1695726927028,-1.0087891,-0.021484375,-0.14355469,-0.03125,-0.96875,0.09375,0.0,0.0,0.0
443,1695726927068,-1.0,0.0029296875,-0.14257812,0.59375,-0.09375,-0.40625,0.0,0.0,0.0
444,1695726927113,-1.0136719,-0.005859375,-0.15722656,-0.34375,0.03125,0.03125,0.0,0.0,0.0
445,1695726927169,-1.0078125,-0.013671875,-0.16699219,-0.09375,-0.84375,0.15625,0.0,0.0,0.0
446,1695726927189,-1.0136719,-0.009765625,-0.140625,-0.03125,0.1875,-0.03125,0.0,0.0,0.0
447,1695726927234,-1.0048828,-0.013671875,-0.13476562,-0.21875,-0.46875,0.09375,0.0,0.0,0.0
448,1695726927268,-1.0009766,0.0029296875,-0.1484375,0.46875,-0.21875,0.03125,0.0,0.0,0.0
449,1695726927330,-1.015625,-0.0078125,-0.13671875,-0.28125,-0.46875,0.09375,0.0,0.0,0.0
450,1695726927349,-1.0146484,-0.0087890625,-0.16113281,0.09375,-0.21875,-0.09375,0.0,0.0,0.0
451,1695726927393,-1.0048828,0.005859375,-0.1484375,-0.21875,-0.09375,-0.15625,0.0,0.0,0.0
452,1695726927435,-1.0048828,0.0048828125,-0.15039062,-0.03125,-0.84375,0.09375,0.0,0.0,0.0
453,1695726927467,-1.0029297,-0.0126953125,-0.15429688,-0.28125,-0.34375,0.21875,-85.8125,-29.8125,-174.1875
454,1695726927509,-1.0029297,-0.009765625,-0.140625,-0.8125,-0.03125,-0.09375,0.0,0.0,0.0
455,1695726927548,-1.0048828,-0.016601562,-0.15917969,-0.4375,-1.1875,-0.03125,0.0,0.0,0.0
456,1695726927589,-1.0107422,0.005859375,-0.13476562,0.71875,0.625,0.03125,0.0,0.0,0.0
457,1695726927629,-1.0078125,-0.0146484375,-0.14746094,-0.75,-0.71875,-0.03125,0.0,0.0,0.0
458,1695726927668,-1.0126953,-0.0048828125,-0.15136719,0.21875,-0.28125,0.09375,0.0,0.0,0.0
459,1695726927769,-1.0097656,-0.01953125,-0.14160156,0.28125,-0.34375,-0.09375,0.0,0.0,0.0
460,1695726927774,-1.0097656,-0.0029296875,-0.16210938,-0.28125,-0.59375,-0.40625,0.0,0.0,0.0
461,1695726927787,-1.0068359,-0.0068359375,-0.16015625,0.84375,0.09375,-0.03125,0.0,0.0,0.0
462,1695726927828,-1.0058594,-0.016601562,-0.14550781,0.15625,-0.15625,0.21875,0.0,0.0,0.0
463,1695726927867,-1.0117188,-0.005859375,-0.15332031,-0.4375,-0.28125,-0.03125,0.0,0.0,0.0
464,1695726927927,-1.0117188,-0.0126953125,-0.15136719,-0.09375,-0.53125,0.03125,0.0,0.0,0.0
465,1695726927947,-1.0019531,-0.009765625,-0.14746094,1.0625,-0.53125,0.09375,-86.25,-29.375,-175.125
466,1695726927988,-1.0097656,-0.0078125,-0.16308594,-0.4375,0.03125,-0.15625,0.0,0.0,0.0
467,1695726928028,-1.0048828,0.0,-0.14941406,0.71875,-0.03125,0.09375,0.0,0.0,0.0
468,1695726928068,-1.0039062,-0.016601562,-0.1484375,-0.5625,-0.46875,0.15625,0.0,0.0,0.0
469,1695726928112,-1.0107422,-0.0126953125,-0.14648438,0.71875,-0.46875,0.09375,0.0,0.0,0.0
470,1695726928168,-1.0087891,-0.013671875,-0.15722656,-0.09375,-0.46875,0.28125,0.0,0.0,0.0
471,1695726928188,-1.0136719,0.0009765625,-0.14257812,-0.15625,-0.71875,-0.03125,0.0,0.0,0.0
472,1695726928229,-1.0068359,-0.0146484375,-0.15039062,0.90625,-0.15625,0.21875,0.0,0.0,0.0
473,1695726928268,-1.0078125,-0.0068359375,-0.14746094,-0.75,-0.53125,-0.34375,0.0,0.0,0.0
474,1695726928309,-1.0097656,-0.0029296875,-0.13867188,0.21875,-0.28125,0.21875,0.0,0.0,0.0
475,1695726928348,-0.9941406,-0.009765625,-0.14453125,0.28125,0.15625,0.21875,0.0,0.0,0.0
476,1695726928389,-1.0097656,-0.0087890625,-0.13476562,-0.875,-0.09375,-0.03125,0.0,0.0,0.0
477,1695726928429,-1.0068359,-0.0107421875,-0.14355469,0.21875,0.09375,0.09375,0.0,0.0,0.0
478,1695726928470,-1.0058594,-0.0009765625,-0.14355469,-0.21875,-0.09375,-0.09375,-85.375,-27.4375,-174.9375
479,1695726928509,-1.0097656,-0.009765625,-0.16503906,-0.34375,-0.96875,0.21875,0.0,0.0,0.0
480,1695726928552,-1.0126953,0.005859375,-0.13964844,-0.09375,0.5625,-0.09375,0.0,0.0,0.0
481,1695726928588,-1.0039062,-0.013671875,-0.15136719,-0.4375,0.09375,-0.09375,0.0,0.0,0.0
482,1695726928628,-1.0009766,-0.0009765625,-0.15136719,-0.34375,0.09375,0.15625,0.0,0.0,0.0
483,1695726928689,-1.0058594,-0.013671875,-0.14550781,-0.28125,-0.59375,0.09375,0.0,0.0,0.0
484,1695726928708,-1.0097656,0.0009765625,-0.14257812,-0.03125,-0.28125,-0.15625,0.0,0.0,0.0
485,1695726928749,-1.0048828,0.001953125,-0.15429688,-0.375,-0.28125,0.09375,0.0,0.0,0.0
486,1695726928789,-1.0009766,-0.0078125,-0.14941406,-0.21875,-0.71875,0.15625,0.0,0.0,0.0
487,1695726928829,-1.0107422,0.0087890625,-0.15527344,-0.15625,0.1875,-0.15625,0.0,0.0,0.0
488,1695726928868,-0.9970703,-0.0068359375,-0.14355469,-0.03125,-0.28125,0.21875,0.0,0.0,0.0
489,1695726928909,-1.0068359,0.0078125,-0.14355469,-0.5625,-0.53125,0.15625,0.0,0.0,0.0
490,1695726928949,-1.0107422,-0.016601562,-0.16113281,0.40625,-0.09375,0.09375,-85.8125,-27.6875,-174.625
491,1695726928989,-1.0029297,-0.001953125,-0.15527344,-1.25,0.03125,-0.21875,0.0,0.0,0.0
492,1695726929028,-0.9970703,-0.0126953125,-0.1328125,0.53125,-0.09375,0.65625,0.0,0.0,0.0
493,1695726929068,-1.0078125,-0.009765625,-0.13671875,-0.03125,0.03125,0.09375,0.0,0.0,0.0
494,1695726929109,-1.0029297,-0.0078125,-0.13476562,0.90625,0.3125,-0.09375,0.0,0.0,0.0
495,1695726929148,-0.99902344,0.0048828125,-0.15625,-0.875,-0.65625,0.03125,0.0,0.0,0.0
496,1695726929190,-1.0214844,0.005859375,-0.14453125,0.40625,0.75,0.09375,0.0,0.0,0.0
497,1695726929229,-0.99902344,-0.01171875,-0.12988281,0.65625,-0.53125,0.34375,0.0,0.0,0.0
498,1695726929269,-1.015625,0.013671875,-0.15625,0.40625,0.15625,0.15625,0.0,0.0,0.0
499,1695726929309,-1.0019531,-0.0068359375,-0.14746094,-0.875,0.03125,-0.03125,0.0,0.0,0.0
500,1695726929348,-1.0029297,0.0009765625,-0.14453125,-0.6875,-0.46875,-0.21875,0.0,0.0,0.0
501,1695726929389,-1.0058594,-0.01171875,-0.14941406,0.34375,-0.09375,0.28125,0.0,0.0,0.0
502,1695726929448,-1.0068359,-0.01171875,-0.16210938,0.28125,0.03125,0.09375,0.0,0.0,0.0
503,1695726929468,-1.0058594,-0.0126953125,-0.15136719,-0.09375,-0.15625,0.03125,-86.25,-28.9375,-173.75
504,1695726929510,-1.0019531,-0.0029296875,-0.14648438,0.78125,0.03125,0.09375,0.0,0.0,0.0
505,1695726929570,-1.0019531,-0.0087890625,-0.15039062,0.90625,0.1875,0.34375,0.0,0.0,0.0
506,1695726929588,-1.0097656,-0.00390625,-0.15722656,0.3125,-0.1875,-0.25,0.0,0.0,0.0
507,1695726929632,-1.0166016,0.005859375,-0.14550781,0.625,0.71875,0.125,0.0,0.0,0.0
508,1695726929670,-1.0166016,-0.018554688,-0.14160156,0.0625,-0.4375,0.3125,0.0,0.0,0.0
509,1695726929710,-1.0166016,0.00390625,-0.15136719,1.09375,0.1875,-0.3125,0.0,0.0,0.0
510,1695726929752,-1.0068359,-0.0107421875,-0.14941406,0.25,0.3125,-0.1875,0.0,0.0,0.0
511,1695726929793,-1.0146484,0.0009765625,-0.1640625,-0.125,0.0,-0.25,0.0,0.0,0.0
512,1695726929831,-1.0068359,-0.0048828125,-0.14550781,-0.0625,-0.3125,0.0,0.0,0.0,0.0
513,1695726929870,-1.0126953,-0.005859375,-0.15332031,0.625,0.1875,-0.1875,0.0,0.0,0.0
514,1695726929908,-1.0068359,-0.0078125,-0.15527344,-0.1875,-0.25,0.0,0.0,0.0,0.0
515,1695726929948,-1.0136719,0.0009765625,-0.15527344,0.375,0.46875,-0.25,-86.875,-28.0,-173.875
516,1695726929991,-1.015625,-0.00390625,-0.16015625,-0.375,-0.75,0.125,0.0,0.0,0.0
517,1695726930029,-1.0117188,0.0,-0.15722656,0.6875,0.3125,-0.25,0.0,0.0,0.0
518,1695726930068,-1.0175781,-0.001953125,-0.15136719,0.1875,-0.375,-0.125,0.0,0.0,0.0
519,1695726930112,-1.0117188,0.0048828125,-0.14648438,-0.375,0.1875,-0.3125,0.0,0.0,0.0
520,1695726930148,-1.0087891,-0.0107421875,-0.16015625,-0.375,0.1875,0.3125,0.0,0.0,0.0
521,1695726930207,-1.0039062,-0.0087890625,-0.13183594,0.625,0.375,0.0625,0.0,0.0,0.0
522,1695726930228,-1.0097656,-0.0107421875,-0.16015625,-0.5,-0.1875,-0.3125,0.0,0.0,0.0
523,1695726930271,-1.0058594,-0.001953125,-0.15429688,0.90625,0.40625,-0.375,0.0,0.0,0.0
524,1695726930309,-1.0136719,0.001953125,-0.140625,0.4375,-0.25,-0.125,0.0,0.0,0.0
525,1695726930349,-1.0039062,-0.00390625,-0.14941406,-0.25,0.1875,-0.375,0.0,0.0,0.0
526,1695726930392,-1.0117188,-0.005859375,-0.15722656,-0.0625,0.125,0.0,0.0,0.0,0.0
527,1695726930430,-1.0175781,-0.01171875,-0.14160156,-0.1875,-0.3125,-0.0625,0.0,0.0,0.0
528,1695726930470,-1.0068359,0.0029296875,-0.14257812,0.8125,0.0,-0.1875,-85.375,-26.9375,-173.875
529,1695726930508,-1.0058594,0.001953125,-0.14550781,0.0625,0.3125,0.0,0.0,0.0,0.0
530,1695726930548,-1.0068359,-0.009765625,-0.14550781,-0.3125,-0.1875,-0.25,0.0,0.0,0.0
531,1695726930590,-1.0048828,-0.001953125,-0.15039062,-0.125,-0.125,-0.375,0.0,0.0,0.0
532,1695726930628,-1.0117188,0.0068359375,-0.15429688,-0.0625,0.78125,-0.0625,0.0,0.0,0.0
533,1695726930670,-1.0136719,0.001953125,-0.140625,-0.59375,-0.0625,0.0,0.0,0.0,0.0
534,1695726930709,-1.0244141,-0.0087890625,-0.14648438,-0.5,0.125,0.0625,0.0,0.0,0.0
535,1695726930768,-1.0,-0.013671875,-0.15039062,-0.59375,-0.8125,-0.125,0.0,0.0,0.0
536,1695726930788,-1.0068359,-0.0048828125,-0.15234375,0.5625,0.375,-0.1875,0.0,0.0,0.0
537,1695726930828,-1.0107422,-0.0107421875,-0.15234375,-0.53125,-0.75,-0.125,0.0,0.0,0.0
538,1695726930869,-1.0097656,-0.001953125,-0.140625,-0.3125,0.25,-0.125,0.0,0.0,0.0
539,1695726930912,-1.0058594,-0.013671875,-0.15722656,0.375,0.0,0.0,0.0,0.0,0.0
540,1695726930967,-1.0166016,-0.0029296875,-0.15429688,0.125,0.0625,-0.25,-86.875,-29.8125,-173.875
541,1695726930987,-1.0117188,-0.0009765625,-0.14746094,-0.375,-0.25,0.0625,0.0,0.0,0.0
542,1695726931032,-1.0068359,-0.018554688,-0.15234375,0.4375,0.0,0.1875,0.0,0.0,0.0
543,1695726931068,-1.0058594,-0.0068359375,-0.14941406,0.5625,0.25,-0.25,0.0,0.0,0.0
544,1695726931108,-1.0146484,0.001953125,-0.13085938,0.96875,0.375,-0.3125,0.0,0.0,0.0
545,1695726931148,-1.0078125,0.0,-0.16601562,0.25,-0.125,0.125,0.0,0.0,0.0
546,1695726931188,-1.0048828,-0.01171875,-0.14453125,0.625,-0.0625,-0.25,0.0,0.0,0.0
547,1695726931228,-1.0058594,-0.001953125,-0.15136719,-0.59375,0.0,-0.3125,0.0,0.0,0.0
548,1695726931270,-0.9980469,-0.0078125,-0.15234375,0.5,-0.4375,0.1875,0.0,0.0,0.0
549,1695726931309,-1.0019531,-0.009765625,-0.15136719,0.0625,0.25,0.125,0.0,0.0,0.0
550,1695726931348,-1.0097656,-0.00390625,-0.15625,0.1875,-0.25,-0.375,0.0,0.0,0.0
551,1695726931407,-1.0136719,0.0009765625,-0.140625,0.1875,0.125,-0.125,0.0,0.0,0.0
552,1695726931426,-1.0048828,-0.01171875,-0.15722656,-0.0625,-0.8125,-0.3125,0.0,0.0,0.0
553,1695726931467,-1.0048828,-0.0087890625,-0.15917969,-0.25,0.125,-0.25,-86.25,-28.625,-174.5
554,1695726931509,-1.0146484,-0.005859375,-0.14355469,-0.4375,-0.25,-0.3125,0.0,0.0,0.0
555,1695726931548,-1.0097656,-0.0048828125,-0.15136719,0.125,0.125,-0.125,0.0,0.0,0.0
556,1695726931590,-1.0097656,-0.0029296875,-0.14355469,-0.25,-0.0625,-0.0625,0.0,0.0,0.0
557,1695726931628,-1.0019531,0.0029296875,-0.14257812,-0.375,-0.125,-0.1875,0.0,0.0,0.0
558,1695726931669,-1.0068359,-0.0068359375,-0.14257812,-0.25,-0.5625,-0.125,0.0,0.0,0.0
559,1695726931728,-1.0117188,-0.0048828125,-0.12792969,0.1875,-0.1875,-0.3125,0.0,0.0,0.0
560,1695726931749,-1.0107422,-0.0087890625,-0.14648438,-0.3125,0.1875,-0.3125,0.0,0.0,0.0
561,1695726931788,-1.0126953,-0.013671875,-0.15332031,0.0625,-0.5,-0.0625,0.0,0.0,0.0
562,1695726931829,-1.0166016,-0.013671875,-0.14453125,-0.375,-0.375,-0.125,0.0,0.0,0.0
563,1695726931869,-1.0224609,-0.0087890625,-0.14257812,0.0,0.0625,-0.375,0.0,0.0,0.0
564,1695726931909,-1.0136719,-0.0048828125,-0.15625,-0.375,-0.375,-0.25,0.0,0.0,0.0
565,1695726931948,-1.0107422,-0.0087890625,-0.14453125,0.6875,-0.125,0.0,-84.625,-28.75,-174.625
566,1695726931988,-1.0078125,-0.0087890625,-0.140625,0.0625,-0.375,-0.375,0.0,0.0,0.0
567,1695726932029,-1.0146484,-0.0029296875,-0.1484375,0.25,0.0,-0.5,0.0,0.0,0.0
568,1695726932068,-1.0048828,0.001953125,-0.15136719,0.125,-0.25,-0.1875,0.0,0.0,0.0
569,1695726932108,-1.0039062,-0.0078125,-0.14257812,0.4375,-0.1875,-0.25,0.0,0.0,0.0
570,1695726932148,-1.0166016,-0.0029296875,-0.16113281,0.375,0.25,-0.4375,0.0,0.0,0.0
571,1695726932189,-1.0117188,-0.013671875,-0.140625,-0.25,-0.375,-0.1875,0.0,0.0,0.0
572,1695726932248,-1.0078125,-0.0029296875,-0.15527344,0.21875,0.15625,-0.125,0.0,0.0,0.0
573,1695726932268,-0.9951172,-0.0068359375,-0.14453125,-0.15625,0.03125,-0.125,0.0,0.0,0.0
574,1695726932309,-1.0097656,-0.0078125,-0.14746094,-0.21875,0.40625,-0.1875,0.0,0.0,0.0
575,1695726932348,-1.0068359,-0.0126953125,-0.13769531,-0.03125,0.15625,0.0,0.0,0.0,0.0
576,1695726932390,-1.0087891,-0.0087890625,-0.14550781,-0.53125,0.09375,0.0,0.0,0.0,0.0
577,1695726932428,-1.0,-0.0146484375,-0.14355469,0.03125,0.53125,0.0,0.0,0.0,0.0
578,1695726932490,-1.0117188,-0.0009765625,-0.15234375,-0.03125,0.71875,-0.125,-85.1875,-28.625,-174.5
579,1695726932508,-1.0107422,0.00390625,-0.14355469,-0.34375,0.46875,0.03125,0.0,0.0,0.0
580,1695726932549,-1.0097656,-0.005859375,-0.15039062,-0.75,0.21875,0.03125,0.0,0.0,0.0
581,1695726932609,-1.0136719,-0.0087890625,-0.13964844,-0.46875,0.15625,0.0,0.0,0.0,0.0
582,1695726932628,-0.99902344,-0.015625,-0.14355469,-0.53125,-0.15625,0.09375,0.0,0.0,0.0
583,1695726932670,-1.0058594,-0.0078125,-0.14257812,-0.34375,0.21875,0.0,0.0,0.0,0.0
584,1695726932708,-1.0126953,-0.0029296875,-0.14257812,-0.03125,0.34375,0.0,0.0,0.0,0.0
585,1695726932748,-1.0175781,-0.0126953125,-0.1484375,-0.09375,-0.03125,0.09375,0.0,0.0,0.0
586,1695726932793,-0.99902344,-0.015625,-0.15136719,0.21875,0.28125,0.0,0.0,0.0,0.0
587,1695726932829,-1.015625,-0.0068359375,-0.15136719,0.21875,0.59375,-0.0625,0.0,0.0,0.0
588,1695726932873,-1.0107422,-0.0087890625,-0.14160156,0.34375,0.40625,0.0,0.0,0.0,0.0
589,1695726932908,-1.0087891,-0.0068359375,-0.13671875,0.21875,0.28125,0.21875,0.0,0.0,0.0
590,1695726932949,-1.0107422,-0.0087890625,-0.14941406,-0.40625,0.28125,0.0,-86.875,-28.75,-175.6875
591,1695726932989,-1.0107422,-0.0048828125,-0.13476562,0.625,-0.09375,0.21875,0.0,0.0,0.0
592,1695726933028,-1.0068359,-0.0078125,-0.15332031,-0.53125,0.15625,0.03125,0.0,0.0,0.0
593,1695726933070,-1.0175781,-0.01171875,-0.15722656,-0.03125,0.40625,0.15625,0.0,0.0,0.0
594,1695726933112,-1.0107422,-0.005859375,-0.13769531,0.21875,0.15625,0.03125,0.0,0.0,0.0
595,1695726933150,-1.0039062,-0.0078125,-0.1484375,-0.53125,-0.15625,0.15625,0.0,0.0,0.0
596,1695726933196,-1.0029297,-0.005859375,-0.15234375,0.28125,0.46875,0.09375,0.0,0.0,0.0
597,1695726933248,-1.0117188,-0.009765625,-0.15136719,-0.28125,0.71875,0.34375,0.0,0.0,0.0
598,1695726933269,-1.0058594,-0.0048828125,-0.14550781,-0.34375,0.65625,0.21875,0.0,0.0,0.0
599,1695726933312,-1.0146484,-0.001953125,-0.14160156,-0.28125,0.28125,0.15625,0.0,0.0,0.0
600,1695726933348,-1.0107422,-0.00390625,-0.14550781,-1.125,-0.25,0.15625,0.0,0.0,0.0
601,1695726933391,-0.99902344,-0.0126953125,-0.15917969,-0.09375,-0.25,0.15625,0.0,0.0,0.0
602,1695726933427,-1.0087891,-0.0068359375,-0.14160156,-0.28125,0.21875,0.09375,0.0,0.0,0.0
603,1695726933472,-1.0097656,0.001953125,-0.15332031,-0.15625,0.40625,0.09375,-85.5,-29.9375,-176.125
604,1695726933510,-1.0068359,-0.0068359375,-0.15136719,-0.09375,0.15625,0.40625,0.0,0.0,0.0
605,1695726933555,-1.0126953,-0.0078125,-0.15136719,-0.15625,0.40625,0.0,0.0,0.0,0.0
606,1695726933589,-1.0068359,-0.0087890625,-0.13964844,-0.09375,0.34375,0.0,0.0,0.0,0.0
607,1695726933628,-1.0136719,-0.013671875,-0.15722656,-0.21875,0.53125,0.0,0.0,0.0,0.0
608,1695726933670,-1.0019531,-0.005859375,-0.15429688,-0.15625,0.34375,0.0,0.0,0.0,0.0
609,1695726933709,-0.9980469,-0.009765625,-0.14941406,0.34375,0.53125,-0.1875,0.0,0.0,0.0
610,1695726933749,-1.0068359,-0.0029296875,-0.14941406,0.59375,0.59375,0.15625,0.0,0.0,0.0
611,1695726933808,-1.0019531,-0.009765625,-0.15722656,-0.09375,0.40625,0.15625,0.0,0.0,0.0
612,1695726933828,-0.9980469,-0.0078125,-0.15039062,0.28125,0.78125,-0.0625,0.0,0.0,0.0
613,1695726933869,-1.0136719,0.001953125,-0.15039062,-0.53125,0.53125,0.09375,0.0,0.0,0.0
614,1695726933908,-1.0195312,-0.009765625,-0.13964844,-0.15625,0.21875,0.28125,0.0,0.0,0.0
615,1695726933949,-1.0146484,-0.0078125,-0.14355469,-0.15625,-0.09375,0.0,-86.875,-28.75,-174.625
616,1695726934008,-0.9970703,-0.00390625,-0.15039062,-0.34375,0.53125,-0.125,0.0,0.0,0.0
617,1695726934028,-1.0068359,-0.005859375,-0.15722656,0.21875,0.46875,0.21875,0.0,0.0,0.0
618,1695726934069,-1.0146484,0.0009765625,-0.14160156,-0.53125,0.09375,0.0,0.0,0.0,0.0
619,1695726934108,-1.0009766,-0.0029296875,-0.15527344,-0.15625,0.59375,-0.0625,0.0,0.0,0.0
620,1695726934148,-1.0029297,-0.00390625,-0.14941406,0.21875,0.90625,-0.0625,0.0,0.0,0.0
621,1695726934189,-1.0097656,0.001953125,-0.14648438,0.40625,0.65625,0.34375,0.0,0.0,0.0
622,1695726934228,-1.0107422,-0.0029296875,-0.15332031,0.09375,0.40625,-0.0625,0.0,0.0,0.0
623,1695726934268,-1.0078125,-0.0087890625,-0.13867188,-0.09375,0.03125,-0.3125,0.0,0.0,0.0
624,1695726934309,-1.0117188,-0.0048828125,-0.16015625,0.09375,0.34375,0.09375,0.0,0.0,0.0
625,1695726934349,-1.0117188,0.0009765625,-0.16113281,0.03125,0.28125,0.15625,0.0,0.0,0.0
626,1695726934388,-1.0126953,-0.0087890625,-0.14160156,-0.03125,0.46875,0.15625,0.0,0.0,0.0
627,1695726934429,-1.0019531,0.001953125,-0.14746094,0.03125,0.78125,0.0,0.0,0.0,0.0
628,1695726934468,-1.0087891,-0.001953125,-0.14257812,-0.15625,0.03125,0.0,-86.6875,-28.625,-175.125
629,1695726934508,-1.0126953,-0.005859375,-0.14746094,0.09375,0.21875,-0.1875,0.0,0.0,0.0
630,1695726934549,-1.0048828,-0.009765625,-0.140625,-0.09375,0.03125,-0.0625,0.0,0.0,0.0
631,1695726934589,-1.0009766,-0.009765625,-0.16210938,-0.21875,0.15625,-0.1875,0.0,0.0,0.0
632,1695726934628,-1.0166016,0.0068359375,-0.1640625,0.40625,0.59375,-0.125,0.0,0.0,0.0
633,1695726934670,-1.0107422,-0.0048828125,-0.15332031,-0.15625,0.15625,0.15625,0.0,0.0,0.0
634,1695726934709,-1.0097656,-0.0087890625,-0.15527344,-0.09375,0.09375,0.03125,0.0,0.0,0.0
635,1695726934771,-1.0087891,-0.013671875,-0.15625,-0.34375,0.15625,0.0,0.0,0.0,0.0
636,1695726934788,-1.0126953,-0.013671875,-0.14648438,-0.03125,0.28125,0.0,0.0,0.0,0.0
637,1695726934828,-1.0019531,-0.0126953125,-0.1484375,-0.28125,0.09375,0.03125,0.0,0.0,0.0
638,1695726934869,-1.0195312,-0.005859375,-0.13867188,-0.6875,0.03125,0.0,0.0,0.0,0.0
639,1695726934908,-1.0214844,-0.0029296875,-0.15820312,-0.46875,-0.5625,0.28125,0.0,0.0,0.0
640,1695726934949,-1.0,-0.0078125,-0.16210938,-0.6875,-0.6875,0.09375,-86.6875,-28.625,-175.5625
641,1695726934994,-1.0107422,0.0029296875,-0.14648438,-0.28125,-0.09375,0.0,0.0,0.0,0.0
642,1695726935028,-1.0068359,-0.0029296875,-0.1484375,-0.09375,0.15625,0.28125,0.0,0.0,0.0
643,1695726935074,-1.0117188,-0.0029296875,-0.1484375,0.03125,-0.15625,0.15625,0.0,0.0,0.0
644,1695726935108,-1.0146484,-0.0048828125,-0.15234375,-0.21875,-0.1875,0.03125,0.0,0.0,0.0
645,1695726935150,-1.0087891,0.001953125,-0.13769531,-0.34375,-0.1875,0.09375,0.0,0.0,0.0
646,1695726935192,-1.0068359,-0.0078125,-0.15625,-0.03125,-0.4375,0.15625,0.0,0.0,0.0
647,1695726935227,-1.0058594,-0.0048828125,-0.15136719,-0.09375,-0.1875,0.09375,0.0,0.0,0.0
648,1695726935269,-1.0029297,-0.0048828125,-0.13769531,-0.03125,0.15625,0.15625,0.0,0.0,0.0
649,1695726935309,-1.0078125,-0.005859375,-0.13769531,-0.65625,-0.1875,0.09375,0.0,0.0,0.0
650,1695726935348,-1.0019531,0.0078125,-0.15136719,-0.15625,-0.3125,0.21875,0.0,0.0,0.0
651,1695726935389,-1.0087891,-0.0126953125,-0.15527344,-0.59375,0.03125,0.09375,0.0,0.0,0.0
652,1695726935429,-1.0117188,0.005859375,-0.13867188,-0.09375,-0.03125,0.15625,0.0,0.0,0.0
653,1695726935473,-1.0068359,-0.0087890625,-0.15429688,-0.15625,-0.09375,0.28125,-85.5,-28.9375,-174.0625
654,1695726935528,-1.0087891,-0.0087890625,-0.14160156,-0.03125,0.09375,0.09375,0.0,0.0,0.0
655,1695726935549,-1.0078125,-0.001953125,-0.13574219,-0.40625,-0.15625,0.0,0.0,0.0,0.0
656,1695726935589,-0.9970703,-0.01171875,-0.13574219,-0.46875,-0.5,0.28125,0.0,0.0,0.0
657,1695726935628,-1.015625,-0.015625,-0.1484375,-0.09375,0.09375,-0.0625,0.0,0.0,0.0
658,1695726935673,-1.0126953,0.00390625,-0.14550781,-0.03125,0.15625,-0.0625,0.0,0.0,0.0
659,1695726935753,-1.015625,-0.009765625,-0.15820312,-0.21875,-0.1875,0.0,0.0,0.0,0.0
660,1695726935755,-1.0107422,-0.0029296875,-0.14746094,-0.34375,-0.1875,0.03125,0.0,0.0,0.0
661,1695726935789,-1.0058594,-0.0068359375,-0.14941406,-0.09375,0.09375,-0.1875,0.0,0.0,0.0
662,1695726935831,-1.0126953,0.0029296875,-0.14257812,-1.0,0.09375,-0.3125,0.0,0.0,0.0
663,1695726935869,-1.015625,-0.016601562,-0.15234375,0.75,-0.15625,0.46875,0.0,0.0,0.0
664,1695726935908,-1.0107422,-0.01171875,-0.1484375,-0.21875,0.21875,0.0,0.0,0.0,0.0
665,1695726935948,-1.0087891,-0.0078125,-0.14941406,0.46875,0.28125,-0.125,-86.6875,-28.9375,-174.8125
666,1695726935989,-1.0039062,0.001953125,-0.13964844,-0.21875,0.34375,-0.25,0.0,0.0,0.0
667,1695726936028,-1.0087891,-0.0048828125,-0.15917969,-0.6875,-0.3125,-0.125,0.0,0.0,0.0
668,1695726936073,-1.0107422,-0.01171875,-0.15039062,0.09375,-0.1875,-0.0625,0.0,0.0,0.0
669,1695726936108,-1.0019531,-0.01171875,-0.15527344,-0.03125,0.09375,-0.375,0.0,0.0,0.0
670,1695726936153,-1.0048828,-0.0048828125,-0.15527344,0.21875,0.15625,-0.4375,0.0,0.0,0.0
671,1695726936193,-1.0058594,-0.001953125,-0.14257812,-0.09375,-0.09375,0.0,0.0,0.0,0.0
672,1695726936227,-1.0087891,0.0048828125,-0.1484375,-0.65625,-0.5,0.15625,0.0,0.0,0.0
673,1695726936287,-1.0126953,-0.0107421875,-0.1484375,-0.65625,-0.25,-0.0625,0.0,0.0,0.0
674,1695726936307,-1.0,-0.0107421875,-0.14355469,0.15625,0.28125,-0.1875,0.0,0.0,0.0
675,1695726936348,-1.0068359,-0.0048828125,-0.14257812,0.03125,0.09375,0.09375,0.0,0.0,0.0
676,1695726936388,-1.0136719,-0.0078125,-0.140625,-0.40625,-0.1875,-0.0625,0.0,0.0,0.0
677,1695726936428,-1.0097656,-0.0087890625,-0.140625,-0.21875,-0.4375,-0.125,0.0,0.0,0.0
678,1695726936469,-1.0019531,0.0009765625,-0.14941406,0.40625,0.09375,0.03125,-85.375,-28.0,-174.625
679,1695726936508,-1.0039062,-0.0029296875,-0.14746094,0.46875,0.46875,0.09375,0.0,0.0,0.0
680,1695726936550,-1.0117188,-0.005859375,-0.14941406,-0.65625,0.46875,-0.0625,0.0,0.0,0.0
681,1695726936589,-1.015625,-0.0029296875,-0.13769531,-0.09375,0.28125,0.21875,0.0,0.0,0.0
682,1695726936628,-1.0097656,-0.015625,-0.13378906,-1.0625,-0.03125,0.09375,0.0,0.0,0.0
683,1695726936668,-1.0097656,-0.00390625,-0.14941406,-1.4375,-0.03125,0.03125,0.0,0.0,0.0
684,1695726936708,-1.0087891,-0.016601562,-0.14257812,-0.46875,-0.3125,0.03125,0.0,0.0,0.0
685,1695726936749,-1.0146484,0.0068359375,-0.15625,-0.6875,0.21875,-0.1875,0.0,0.0,0.0
686,1695726936789,-1.0068359,-0.0009765625,-0.14160156,-0.15625,0.21875,0.15625,0.0,0.0,0.0
687,1695726936828,-1.015625,-0.013671875,-0.14160156,-0.21875,0.46875,0.15625,0.0,0.0,0.0
688,1695726936869,-1.0117188,-0.0107421875,-0.14453125,-0.03125,0.28125,0.03125,0.0,0.0,0.0
689,1695726936909,-1.0126953,-0.0126953125,-0.14746094,-0.09375,0.28125,-0.0625,0.0,0.0,0.0
690,1695726936949,-1.0136719,-0.0107421875,-0.1640625,0.15625,0.21875,0.03125,-85.8125,-27.6875,-173.625
691,1695726936989,-1.0117188,-0.005859375,-0.14453125,0.53125,0.53125,0.03125,0.0,0.0,0.0
692,1695726937050,-1.0195312,-0.0048828125,-0.15234375,-0.6875,0.40625,0.15625,0.0,0.0,0.0
693,1695726937068,-1.0039062,-0.01953125,-0.14648438,0.28125,-0.3125,0.59375,0.0,0.0,0.0
694,1695726937108,-1.0087891,-0.0048828125,-0.14746094,0.15625,0.59375,-0.0625,0.0,0.0,0.0
695,1695726937149,-1.0058594,-0.005859375,-0.14453125,0.34375,0.71875,0.0,0.0,0.0,0.0
696,1695726937189,-1.0126953,-0.0078125,-0.14257812,0.15625,0.59375,0.28125,0.0,0.0,0.0
697,1695726937229,-1.0146484,-0.0029296875,-0.14257812,0.34375,0.53125,0.03125,0.0,0.0,0.0
698,1695726937268,-1.0048828,0.0029296875,-0.15722656,-0.03125,0.53125,0.0,0.0,0.0,0.0
699,1695726937308,-1.0078125,-0.013671875,-0.13769531,-0.03125,0.28125,0.03125,0.0,0.0,0.0
700,1695726937352,-1.0019531,-0.0126953125,-0.14941406,0.15625,0.28125,0.40625,0.0,0.0,0.0
701,1695726937388,-1.0097656,-0.0078125,-0.15722656,-0.03125,0.46875,0.21875,0.0,0.0,0.0
702,1695726937428,-1.0175781,-0.0048828125,-0.14160156,-0.28125,0.40625,0.03125,0.0,0.0,0.0
703,1695726937469,-1.0087891,-0.005859375,-0.15234375,-0.59375,0.09375,0.28125,-86.25,-28.1875,-175.875
704,1695726937509,-1.0039062,-0.016601562,-0.15527344,-1.0,0.40625,0.15625,0.0,0.0,0.0
705,1695726937549,-1.0107422,-0.001953125,-0.14355469,-0.65625,0.28125,0.21875,0.0,0.0,0.0
706,1695726937589,-1.0087891,-0.0078125,-0.140625,-0.28125,0.28125,0.28125,0.0,0.0,0.0
707,1695726937628,-1.0107422,-0.015625,-0.15039062,-0.15625,0.59375,0.28125,0.0,0.0,0.0
708,1695726937671,-1.0146484,-0.0029296875,-0.12988281,-0.59375,-0.09375,0.40625,0.0,0.0,0.0
709,1695726937708,-1.0009766,-0.0087890625,-0.14257812,-0.03125,0.71875,0.15625,0.0,0.0,0.0
710,1695726937749,-1.0136719,0.001953125,-0.13769531,-0.09375,0.65625,0.21875,0.0,0.0,0.0
711,1695726937808,-1.0175781,-0.0029296875,-0.1484375,-0.34375,0.34375,0.40625,0.0,0.0,0.0
712,1695726937828,-1.0048828,-0.0048828125,-0.15625,0.46875,0.15625,0.28125,0.0,0.0,0.0
713,1695726937870,-1.0087891,-0.001953125,-0.14160156,0.03125,0.78125,0.0,0.0,0.0,0.0
714,1695726937909,-1.0039062,-0.0009765625,-0.15234375,0.40625,0.53125,0.40625,0.0,0.0,0.0
715,1695726937951,-1.0048828,0.0009765625,-0.14648438,-0.03125,0.53125,0.34375,-85.5,-28.1875,-173.75
716,1695726937988,-0.9970703,-0.0107421875,-0.14550781,-0.40625,0.59375,0.03125,0.0,0.0,0.0
717,1695726938028,-1.0136719,-0.0107421875,-0.13867188,-0.09375,0.46875,0.15625,0.0,0.0,0.0
718,1695726938070,-1.0146484,0.0009765625,-0.14257812,0.03125,0.40625,0.28125,0.0,0.0,0.0
719,1695726938108,-1.0048828,0.0,-0.15039062,0.09375,0.46875,0.0,0.0,0.0,0.0
720,1695726938152,-1.0136719,-0.001953125,-0.13964844,-0.03125,0.59375,0.0,0.0,0.0,0.0
721,1695726938189,-1.0097656,-0.0048828125,-0.14550781,-0.21875,0.53125,0.15625,0.0,0.0,0.0
722,1695726938228,-1.0029297,-0.0029296875,-0.15527344,0.21875,0.71875,0.21875,0.0,0.0,0.0
723,1695726938273,-1.0117188,-0.0087890625,-0.13378906,-0.40625,0.71875,-0.125,0.0,0.0,0.0
724,1695726938308,-1.0039062,-0.0087890625,-0.15527344,0.28125,0.28125,0.28125,0.0,0.0,0.0
725,1695726938348,-1.0019531,-0.009765625,-0.15722656,-0.03125,0.59375,0.09375,0.0,0.0,0.0
726,1695726938389,-1.0214844,-0.009765625,-0.14648438,0.53125,0.53125,0.15625,0.0,0.0,0.0
727,1695726938428,-0.99902344,-0.00390625,-0.14648438,-0.03125,0.34375,0.09375,0.0,0.0,0.0
728,1695726938473,-1.0048828,-0.0029296875,-0.14941406,0.28125,0.46875,0.28125,-87.0,-28.1875,-173.4375
729,1695726938528,-1.0029297,-0.0087890625,-0.15820312,0.40625,0.90625,0.03125,0.0,0.0,0.0
730,1695726938569,-1.0087891,0.0048828125,-0.16308594,-0.21875,0.65625,0.15625,0.0,0.0,0.0
731,1695726938590,-1.0107422,-0.009765625,-0.15917969,-0.09375,0.15625,0.28125,0.0,0.0,0.0
732,1695726938628,-1.0058594,-0.0068359375,-0.14453125,-0.28125,0.53125,0.0,0.0,0.0,0.0
733,1695726938670,-1.0146484,-0.00390625,-0.14648438,-0.09375,0.40625,0.0,0.0,0.0,0.0
734,1695726938711,-1.0117188,-0.0029296875,-0.16015625,0.34375,0.53125,0.03125,0.0,0.0,0.0
735,1695726938753,-1.0087891,-0.0009765625,-0.15429688,-0.21875,0.65625,-0.125,0.0,0.0,0.0
736,1695726938789,-1.0068359,0.0009765625,-0.15429688,0.21875,0.21875,0.09375,0.0,0.0,0.0
737,1695726938828,-1.0039062,-0.0009765625,-0.15429688,-0.03125,0.90625,-0.0625,0.0,0.0,0.0
738,1695726938868,-1.0107422,0.0029296875,-0.15234375,-0.34375,0.59375,0.15625,0.0,0.0,0.0
739,1695726938909,-1.0019531,-0.0087890625,-0.15527344,0.03125,0.46875,0.09375,0.0,0.0,0.0
740,1695726938948,-1.0107422,-0.0078125,-0.14160156,0.53125,0.59375,0.15625,-85.5,-27.875,-175.125
741,1695726938989,-1.0097656,-0.001953125,-0.15332031,0.875,0.46875,0.03125,0.0,0.0,0.0
742,1695726939029,-1.0087891,0.0087890625,-0.16015625,0.625,0.46875,-0.1875,0.0,0.0,0.0
743,1695726939069,-1.0029297,0.015625,-0.15527344,0.875,0.28125,-0.0625,0.0,0.0,0.0
744,1695726939108,-1.0048828,-0.0009765625,-0.16015625,0.09375,0.28125,-0.125,0.0,0.0,0.0
745,1695726939150,-1.0146484,0.0009765625,-0.14550781,0.09375,0.65625,-0.3125,0.0,0.0,0.0
746,1695726939188,-1.0107422,-0.00390625,-0.16015625,0.34375,0.40625,0.03125,0.0,0.0,0.0
747,1695726939248,-1.0166016,-0.001953125,-0.15527344,-0.34375,0.09375,-0.125,0.0,0.0,0.0
748,1695726939268,-1.0048828,0.0029296875,-0.16894531,-0.34375,0.09375,-0.25,0.0,0.0,0.0
749,1695726939328,-0.9980469,0.0029296875,-0.15625,-0.6875,0.09375,-0.1875,0.0,0.0,0.0
750,1695726939348,-1.0019531,-0.0068359375,-0.17773438,-0.65625,-0.15625,-0.0625,0.0,0.0,0.0
751,1695726939388,-1.0136719,-0.0068359375,-0.15039062,-0.875,-0.09375,-0.125,0.0,0.0,0.0
752,1695726939429,-1.0146484,-0.00390625,-0.14941406,-0.8125,-0.15625,-0.0625,0.0,0.0,0.0
753,1695726939468,-1.0087891,-0.0107421875,-0.14355469,-0.6875,-0.09375,-0.0625,-85.9375,-28.625,-175.875
754,1695726939508,-1.0068359,-0.009765625,-0.15136719,-0.40625,-0.03125,-0.125,0.0,0.0,0.0
755,1695726939553,-1.0058594,-0.0126953125,-0.16015625,-0.03125,-0.25,0.34375,0.0,0.0,0.0
756,1695726939588,-1.0087891,0.0029296875,-0.16113281,-0.28125,-0.03125,-0.125,0.0,0.0,0.0
757,1695726939648,-1.0058594,-0.01171875,-0.15234375,0.09375,0.21875,0.0,0.0,0.0,0.0
758,1695726939668,-1.0048828,-0.0048828125,-0.15332031,-0.46875,0.03125,0.21875,0.0,0.0,0.0
759,1695726939709,-1.0107422,-0.0068359375,-0.15820312,-0.34375,-0.4375,0.46875,0.0,0.0,0.0
